<?xml version="1.0" encoding="UTF-8"?>

<Bundle xmlns="http://hl7.org/fhir">
  <id value="006-Yaz-0.02mg3mg-tablet-SE-FullProduct"/>
  <type value="batch"/>
  <entry>
    <fullUrl value="https://hl7-eu.github.io/unicom-ig/branches/mpd-r4b/MedicinalProductDefinition/Yaz-0023mg-tablet-SE-AJ-MedicinalProductDefinition"/>
    <resource>
      <MedicinalProductDefinition>
        <id value="Yaz-0023mg-tablet-SE-AJ-MedicinalProductDefinition"/>
        <meta>
          <profile value="http://unicom-project.eu/fhir/StructureDefinition/PPLMedicinalProductDefinition"/>
        </meta>
        <text>
          <status value="generated"/><div xmlns="http://www.w3.org/1999/xhtml"><p><b>Generated Narrative: MedicinalProductDefinition</b><a name="Yaz-0023mg-tablet-SE-AJ-MedicinalProductDefinition"> </a></p><div style="display: inline-block; background-color: #d9e0e7; padding: 6px; margin: 4px; border: 1px solid #8da1b4; border-radius: 5px; line-height: 60%"><p style="margin-bottom: 0px">Resource MedicinalProductDefinition &quot;Yaz-0023mg-tablet-SE-AJ-MedicinalProductDefinition&quot; </p><p style="margin-bottom: 0px">Profile: <a href="StructureDefinition-PPLMedicinalProductDefinition.html">PPL Medicinal Product profile</a></p></div><p><b>identifier</b>: id: SE-100004813-00026267</p><p><b>domain</b>: Human use <span style="background: LightGoldenRodYellow; margin: 4px; border: 1px solid khaki"> (<a href="CodeSystem-domain-ema-cs.html">Domain EMA</a>#100000000012)</span></p><p><b>status</b>: Current <span style="background: LightGoldenRodYellow; margin: 4px; border: 1px solid khaki"> (200000005003#200000005004)</span></p><p><b>combinedPharmaceuticalDoseForm</b>: Film-coated tablet <span style="background: LightGoldenRodYellow; margin: 4px; border: 1px solid khaki"> (<a href="CodeSystem-pharmaceutical-dose-form-ema-cs.html">Pharmaceutical Dose Form EMA</a>#100000073665)</span></p><p><b>indication</b>: Antikonception Vid beslut att förskriva Yaz ska den enskilda kvinnans riskfaktorer beaktas, framför allt de för  venös tromboembolism (VTE), och risken för VTE med Yaz jämfört med andra kombinerade  hormonella preventivmedel (se avsnitt 4.3 och 4.4).</p><p><b>legalStatusOfSupply</b>: Medicinal product subject to medical prescription <span style="background: LightGoldenRodYellow; margin: 4px; border: 1px solid khaki"> (<a href="CodeSystem-legal-status-for-the-supply-ema-cs.html">Legal Status for the Supply EMA</a>#100000072084)</span></p><p><b>classification</b>: G03AA12 <span style="background: LightGoldenRodYellow; margin: 4px; border: 1px solid khaki"> (100000093533#100000095785)</span></p><blockquote><p><b>name</b></p><p><b>productName</b>: Yaz 0,02 mg/3 mg Filmdragerad tablett</p><blockquote><p><b>namePart</b></p><p><b>part</b>: Yaz</p><p><b>type</b>: Invented name part <span style="background: LightGoldenRodYellow; margin: 4px; border: 1px solid khaki"> (220000000000#220000000002)</span></p></blockquote><blockquote><p><b>namePart</b></p><p><b>part</b>: 0,02 mg/3 mg</p><p><b>type</b>: Strength part <span style="background: LightGoldenRodYellow; margin: 4px; border: 1px solid khaki"> (220000000000#220000000004)</span></p></blockquote><blockquote><p><b>namePart</b></p><p><b>part</b>: Filmdragerad tablett</p><p><b>type</b>: Pharmaceutical dose form part <span style="background: LightGoldenRodYellow; margin: 4px; border: 1px solid khaki"> (220000000000#220000000005)</span></p></blockquote><h3>CountryLanguages</h3><table class="grid"><tr><td>-</td><td><b>Country</b></td><td><b>Language</b></td></tr><tr><td>*</td><td>Kingdom of Sweden <span style="background: LightGoldenRodYellow; margin: 4px; border: 1px solid khaki"> (<a href="CodeSystem-country-ema-cs.html">Country EMA</a>#100000000535)</span></td><td>Swedish <span style="background: LightGoldenRodYellow; margin: 4px; border: 1px solid khaki"> (<a href="CodeSystem-language-ema-cs.html">Language EMA</a>#100000072288)</span></td></tr></table></blockquote></div>
        </text>
        <identifier>
          <system value="http://ema.europa.eu/fhir/mpId"/>
          <value value="SE-100004813-00026267"/>
        </identifier>
        <domain>
          <coding>
            <system value="https://spor.ema.europa.eu/v1/lists/100000000004"/>
            <code value="100000000012"/>
            <display value="Human use"/>
          </coding>
        </domain>
        <status>
          <coding>
            <system value="https://spor.ema.europa.eu/v1/lists/200000005003"/>
            <code value="200000005004"/>
            <display value="Current"/>
          </coding>
        </status>
        <combinedPharmaceuticalDoseForm>
          <coding>
            <system value="https://spor.ema.europa.eu/v1/lists/200000000004"/>
            <code value="100000073665"/>
            <display value="Film-coated tablet"/>
          </coding>
        </combinedPharmaceuticalDoseForm>
        <indication value="Antikonception Vid beslut att förskriva Yaz ska den enskilda kvinnans riskfaktorer beaktas, framför allt de för  venös tromboembolism (VTE), och risken för VTE med Yaz jämfört med andra kombinerade  hormonella preventivmedel (se avsnitt 4.3 och 4.4)."/>
        <legalStatusOfSupply>
          <coding>
            <system value="https://spor.ema.europa.eu/v1/lists/100000072051"/>
            <code value="100000072084"/>
            <display value="Medicinal product subject to medical prescription"/>
          </coding>
        </legalStatusOfSupply>
        <classification>
          <coding>
            <system value="https://spor.ema.europa.eu/v1/lists/100000093533"/>
            <code value="100000095785"/>
            <display value="G03AA12"/>
          </coding>
        </classification>
        <name>
          <productName value="Yaz 0,02 mg/3 mg Filmdragerad tablett"/>
          <namePart>
            <part value="Yaz"/>
            <type>
              <coding>
                <system value="https://spor.ema.europa.eu/v1/lists/220000000000"/>
                <code value="220000000002"/>
                <display value="Invented name part"/>
              </coding>
            </type>
          </namePart>
          <namePart>
            <part value="0,02 mg/3 mg"/>
            <type>
              <coding>
                <system value="https://spor.ema.europa.eu/v1/lists/220000000000"/>
                <code value="220000000004"/>
                <display value="Strength part"/>
              </coding>
            </type>
          </namePart>
          <namePart>
            <part value="Filmdragerad tablett"/>
            <type>
              <coding>
                <system value="https://spor.ema.europa.eu/v1/lists/220000000000"/>
                <code value="220000000005"/>
                <display value="Pharmaceutical dose form part"/>
              </coding>
            </type>
          </namePart>
          <countryLanguage>
            <country>
              <coding>
                <system value="https://spor.ema.europa.eu/v1/lists/100000000002"/>
                <code value="100000000535"/>
                <display value="Kingdom of Sweden"/>
              </coding>
            </country>
            <language>
              <coding>
                <system value="https://spor.ema.europa.eu/v1/lists/100000072057"/>
                <code value="100000072288"/>
                <display value="Swedish"/>
              </coding>
            </language>
          </countryLanguage>
        </name>
      </MedicinalProductDefinition>
    </resource>
    <request>
      <method value="POST"/>
      <url value="MedicinalProductDefinition/Yaz-0023mg-tablet-SE-AJ-MedicinalProductDefinition"/>
    </request>
  </entry>
  <entry>
    <fullUrl value="https://hl7-eu.github.io/unicom-ig/branches/mpd-r4b/Organization/LOC-100016468-BayerAB"/>
    <resource>
      <Organization>
        <id value="LOC-100016468-BayerAB"/>
        <meta>
          <profile value="http://unicom-project.eu/fhir/StructureDefinition/PPLOrganization"/>
        </meta>
        <text>
          <status value="generated"/><div xmlns="http://www.w3.org/1999/xhtml"><p><b>Generated Narrative: Organization</b><a name="LOC-100016468-BayerAB"> </a></p><div style="display: inline-block; background-color: #d9e0e7; padding: 6px; margin: 4px; border: 1px solid #8da1b4; border-radius: 5px; line-height: 60%"><p style="margin-bottom: 0px">Resource Organization &quot;LOC-100016468-BayerAB&quot; </p><p style="margin-bottom: 0px">Profile: <a href="StructureDefinition-PPLOrganization.html">PPL Organization</a></p></div><p><b>identifier</b>: id: LOC-100016468</p><p><b>name</b>: Bayer AB</p></div>
        </text>
        <identifier>
          <system value="https://spor.ema.europa.eu/v1/locations"/>
          <value value="LOC-100016468"/>
        </identifier>
        <name value="Bayer AB"/>
      </Organization>
    </resource>
    <request>
      <method value="POST"/>
      <url value="Organization/LOC-100016468-BayerAB"/>
    </request>
  </entry>
  <entry>
    <fullUrl value="https://hl7-eu.github.io/unicom-ig/branches/mpd-r4b/RegulatedAuthorization/Yaz-0023mg-tablet-SE-AJ-RegulatedAuthorization"/>
    <resource>
      <RegulatedAuthorization>
        <id value="Yaz-0023mg-tablet-SE-AJ-RegulatedAuthorization"/>
        <meta>
          <profile value="http://unicom-project.eu/fhir/StructureDefinition/PPLRegulatedAuthorization"/>
        </meta>
        <text>
          <status value="generated"/><div xmlns="http://www.w3.org/1999/xhtml"><p><b>Generated Narrative: RegulatedAuthorization</b><a name="Yaz-0023mg-tablet-SE-AJ-RegulatedAuthorization"> </a></p><div style="display: inline-block; background-color: #d9e0e7; padding: 6px; margin: 4px; border: 1px solid #8da1b4; border-radius: 5px; line-height: 60%"><p style="margin-bottom: 0px">Resource RegulatedAuthorization &quot;Yaz-0023mg-tablet-SE-AJ-RegulatedAuthorization&quot; </p><p style="margin-bottom: 0px">Profile: <a href="StructureDefinition-PPLRegulatedAuthorization.html">PPL Marketing Authorisation profile</a></p></div><p><b>identifier</b>: id: 26267</p><p><b>subject</b>: <a href="#MedicinalProductDefinition_Yaz-0023mg-tablet-SE-AJ-MedicinalProductDefinition">See above (MedicinalProductDefinition/Yaz-0023mg-tablet-SE-AJ-MedicinalProductDefinition)</a></p><p><b>type</b>: Marketing Authorisation <span style="background: LightGoldenRodYellow; margin: 4px; border: 1px solid khaki"> (220000000060#220000000061)</span></p><p><b>region</b>: Kingdom of Sweden <span style="background: LightGoldenRodYellow; margin: 4px; border: 1px solid khaki"> (<a href="CodeSystem-country-ema-cs.html">Country EMA</a>#100000000535)</span></p><p><b>status</b>: Valid <span style="background: LightGoldenRodYellow; margin: 4px; border: 1px solid khaki"> (100000072049#100000072099)</span></p><p><b>statusDate</b>: 2008-07-03</p><p><b>holder</b>: <a href="#Organization_LOC-100016468-BayerAB">See above (Organization/LOC-100016468-BayerAB)</a></p></div>
        </text>
        <identifier>
          <value value="26267"/>
        </identifier>
        <subject>
          <reference value="MedicinalProductDefinition/Yaz-0023mg-tablet-SE-AJ-MedicinalProductDefinition"/>
        </subject>
        <type>
          <coding>
            <system value="https://spor.ema.europa.eu/v1/lists/220000000060"/>
            <code value="220000000061"/>
            <display value="Marketing Authorisation"/>
          </coding>
        </type>
        <region>
          <coding>
            <system value="https://spor.ema.europa.eu/v1/lists/100000000002"/>
            <code value="100000000535"/>
            <display value="Kingdom of Sweden"/>
          </coding>
        </region>
        <status>
          <coding>
            <system value="https://spor.ema.europa.eu/v1/lists/100000072049"/>
            <code value="100000072099"/>
            <display value="Valid"/>
          </coding>
        </status>
        <statusDate value="2008-07-03"/>
        <holder>
          <reference value="Organization/LOC-100016468-BayerAB"/>
        </holder>
      </RegulatedAuthorization>
    </resource>
    <request>
      <method value="POST"/>
      <url value="RegulatedAuthorization/Yaz-0023mg-tablet-SE-AJ-RegulatedAuthorization"/>
    </request>
  </entry>
  <entry>
    <fullUrl value="https://hl7-eu.github.io/unicom-ig/branches/mpd-r4b/AdministrableProductDefinition/Yaz-0023mg-tablet-SE-AJ-AdministrableProductDefinition01"/>
    <resource>
      <AdministrableProductDefinition>
        <id value="Yaz-0023mg-tablet-SE-AJ-AdministrableProductDefinition01"/>
        <meta>
          <profile value="http://unicom-project.eu/fhir/StructureDefinition/PPLAdministrableProductDefinition"/>
        </meta>
        <text>
          <status value="generated"/><div xmlns="http://www.w3.org/1999/xhtml"><p><b>Generated Narrative: AdministrableProductDefinition</b><a name="Yaz-0023mg-tablet-SE-AJ-AdministrableProductDefinition01"> </a></p><div style="display: inline-block; background-color: #d9e0e7; padding: 6px; margin: 4px; border: 1px solid #8da1b4; border-radius: 5px; line-height: 60%"><p style="margin-bottom: 0px">Resource AdministrableProductDefinition &quot;Yaz-0023mg-tablet-SE-AJ-AdministrableProductDefinition01&quot; </p><p style="margin-bottom: 0px">Profile: <a href="StructureDefinition-PPLAdministrableProductDefinition.html">PPL Administrable Product profile</a></p></div><p><b>status</b>: active</p><p><b>formOf</b>: <a href="#MedicinalProductDefinition_Yaz-0023mg-tablet-SE-AJ-MedicinalProductDefinition">See above (MedicinalProductDefinition/Yaz-0023mg-tablet-SE-AJ-MedicinalProductDefinition)</a></p><p><b>administrableDoseForm</b>: Film-coated tablet <span style="background: LightGoldenRodYellow; margin: 4px; border: 1px solid khaki"> (<a href="CodeSystem-pharmaceutical-dose-form-ema-cs.html">Pharmaceutical Dose Form EMA</a>#100000073665)</span></p><p><b>producedFrom</b>: <a href="#ManufacturedItemDefinition_Yaz-0023mg-tablet-SE-AJ-ManufacturedItemDefinition01">See above (ManufacturedItemDefinition/Yaz-0023mg-tablet-SE-AJ-ManufacturedItemDefinition01)</a></p><h3>RouteOfAdministrations</h3><table class="grid"><tr><td>-</td><td><b>Code</b></td></tr><tr><td>*</td><td>Oral use <span style="background: LightGoldenRodYellow; margin: 4px; border: 1px solid khaki"> (<a href="CodeSystem-routes-and-methods-of-administration-ema-cs.html">Routes and Methods of Administration EMA</a>#100000073619)</span></td></tr></table></div>
        </text>
        <status value="active"/>
        <formOf>
          <reference value="MedicinalProductDefinition/Yaz-0023mg-tablet-SE-AJ-MedicinalProductDefinition"/>
        </formOf>
        <administrableDoseForm>
          <coding>
            <system value="https://spor.ema.europa.eu/v1/lists/200000000004"/>
            <code value="100000073665"/>
            <display value="Film-coated tablet"/>
          </coding>
        </administrableDoseForm>
        <producedFrom>
          <reference value="ManufacturedItemDefinition/Yaz-0023mg-tablet-SE-AJ-ManufacturedItemDefinition01"/>
        </producedFrom>
        <routeOfAdministration>
          <code>
            <coding>
              <system value="https://spor.ema.europa.eu/v1/lists/100000073345"/>
              <code value="100000073619"/>
              <display value="Oral use"/>
            </coding>
          </code>
        </routeOfAdministration>
      </AdministrableProductDefinition>
    </resource>
    <request>
      <method value="POST"/>
      <url value="AdministrableProductDefinition/Yaz-0023mg-tablet-SE-AJ-AdministrableProductDefinition01"/>
    </request>
  </entry>
  <entry>
    <fullUrl value="https://hl7-eu.github.io/unicom-ig/branches/mpd-r4b/AdministrableProductDefinition/Yaz-0023mg-tablet-SE-AJ-AdministrableProductDefinition02"/>
    <resource>
      <AdministrableProductDefinition>
        <id value="Yaz-0023mg-tablet-SE-AJ-AdministrableProductDefinition02"/>
        <meta>
          <profile value="http://unicom-project.eu/fhir/StructureDefinition/PPLAdministrableProductDefinition"/>
        </meta>
        <text>
          <status value="generated"/><div xmlns="http://www.w3.org/1999/xhtml"><p><b>Generated Narrative: AdministrableProductDefinition</b><a name="Yaz-0023mg-tablet-SE-AJ-AdministrableProductDefinition02"> </a></p><div style="display: inline-block; background-color: #d9e0e7; padding: 6px; margin: 4px; border: 1px solid #8da1b4; border-radius: 5px; line-height: 60%"><p style="margin-bottom: 0px">Resource AdministrableProductDefinition &quot;Yaz-0023mg-tablet-SE-AJ-AdministrableProductDefinition02&quot; </p><p style="margin-bottom: 0px">Profile: <a href="StructureDefinition-PPLAdministrableProductDefinition.html">PPL Administrable Product profile</a></p></div><p><b>status</b>: active</p><p><b>formOf</b>: <a href="#MedicinalProductDefinition_Yaz-0023mg-tablet-SE-AJ-MedicinalProductDefinition">See above (MedicinalProductDefinition/Yaz-0023mg-tablet-SE-AJ-MedicinalProductDefinition)</a></p><p><b>administrableDoseForm</b>: Film-coated tablet <span style="background: LightGoldenRodYellow; margin: 4px; border: 1px solid khaki"> (<a href="CodeSystem-pharmaceutical-dose-form-ema-cs.html">Pharmaceutical Dose Form EMA</a>#100000073665)</span></p><p><b>producedFrom</b>: <a href="#ManufacturedItemDefinition_Yaz-0023mg-tablet-SE-AJ-ManufacturedItemDefinition02">See above (ManufacturedItemDefinition/Yaz-0023mg-tablet-SE-AJ-ManufacturedItemDefinition02)</a></p><h3>RouteOfAdministrations</h3><table class="grid"><tr><td>-</td><td><b>Code</b></td></tr><tr><td>*</td><td>Oral use <span style="background: LightGoldenRodYellow; margin: 4px; border: 1px solid khaki"> (<a href="CodeSystem-routes-and-methods-of-administration-ema-cs.html">Routes and Methods of Administration EMA</a>#100000073619)</span></td></tr></table></div>
        </text>
        <status value="active"/>
        <formOf>
          <reference value="MedicinalProductDefinition/Yaz-0023mg-tablet-SE-AJ-MedicinalProductDefinition"/>
        </formOf>
        <administrableDoseForm>
          <coding>
            <system value="https://spor.ema.europa.eu/v1/lists/200000000004"/>
            <code value="100000073665"/>
            <display value="Film-coated tablet"/>
          </coding>
        </administrableDoseForm>
        <producedFrom>
          <reference value="ManufacturedItemDefinition/Yaz-0023mg-tablet-SE-AJ-ManufacturedItemDefinition02"/>
        </producedFrom>
        <routeOfAdministration>
          <code>
            <coding>
              <system value="https://spor.ema.europa.eu/v1/lists/100000073345"/>
              <code value="100000073619"/>
              <display value="Oral use"/>
            </coding>
          </code>
        </routeOfAdministration>
      </AdministrableProductDefinition>
    </resource>
    <request>
      <method value="POST"/>
      <url value="AdministrableProductDefinition/Yaz-0023mg-tablet-SE-AJ-AdministrableProductDefinition02"/>
    </request>
  </entry>
  <entry>
    <fullUrl value="https://hl7-eu.github.io/unicom-ig/branches/mpd-r4b/PackagedProductDefinition/Yaz-0023mg-tablet-SE-AJ-PackagedProductDefinition"/>
    <resource>
      <PackagedProductDefinition>
        <id value="Yaz-0023mg-tablet-SE-AJ-PackagedProductDefinition"/>
        <meta>
          <profile value="http://unicom-project.eu/fhir/StructureDefinition/PPLPackagedProductDefinition"/>
        </meta>
        <text>
          <status value="generated"/><div xmlns="http://www.w3.org/1999/xhtml"><p><b>Generated Narrative: PackagedProductDefinition</b><a name="Yaz-0023mg-tablet-SE-AJ-PackagedProductDefinition"> </a></p><div style="display: inline-block; background-color: #d9e0e7; padding: 6px; margin: 4px; border: 1px solid #8da1b4; border-radius: 5px; line-height: 60%"><p style="margin-bottom: 0px">Resource PackagedProductDefinition &quot;Yaz-0023mg-tablet-SE-AJ-PackagedProductDefinition&quot; </p><p style="margin-bottom: 0px">Profile: <a href="StructureDefinition-PPLPackagedProductDefinition.html">PPL Packaged Product profile</a></p></div><p><b>identifier</b>: id: ?ngen-9?</p><p><b>packageFor</b>: <a href="#MedicinalProductDefinition_Yaz-0023mg-tablet-SE-AJ-MedicinalProductDefinition">See above (MedicinalProductDefinition/Yaz-0023mg-tablet-SE-AJ-MedicinalProductDefinition)</a></p><p><b>containedItemQuantity</b>: 84 tablet<span style="background: LightGoldenRodYellow"> (Details: https://spor.ema.europa.eu/v1/lists/200000000014 code 200000002152 = 'Tablet')</span></p><p><b>description</b>: Blister, 3 x 28 tabletter</p><h3>MarketingStatuses</h3><table class="grid"><tr><td>-</td><td><b>Country</b></td><td><b>Status</b></td></tr><tr><td>*</td><td>Kingdom of Sweden <span style="background: LightGoldenRodYellow; margin: 4px; border: 1px solid khaki"> (<a href="CodeSystem-country-ema-cs.html">Country EMA</a>#100000000535)</span></td><td>Marketed <span style="background: LightGoldenRodYellow; margin: 4px; border: 1px solid khaki"> (100000072052#100000072083)</span></td></tr></table><blockquote><p><b>package</b></p><p><b>type</b>: Box <span style="background: LightGoldenRodYellow; margin: 4px; border: 1px solid khaki"> (100000073346#100000073498)</span></p><p><b>quantity</b>: 1</p><p><b>material</b>: Plastic <span style="background: LightGoldenRodYellow; margin: 4px; border: 1px solid khaki"> (<a href="CodeSystem-material-ema-cs.html">Material EMA</a>#200000003208)</span></p><h3>ShelfLifeStorages</h3><table class="grid"><tr><td>-</td><td><b>Type</b></td><td><b>Period[x]</b></td></tr><tr><td>*</td><td>Shelf life of the medicinal product as packaged for sale <span style="background: LightGoldenRodYellow; margin: 4px; border: 1px solid khaki"> (100000073343#100000073403)</span></td><td>5 Year<span style="background: LightGoldenRodYellow"> (Details: https://spor.ema.europa.eu/v1/lists/100000110633 code 200000003434 = 'year')</span></td></tr></table><blockquote><p><b>package</b></p><p><b>type</b>: Box <span style="background: LightGoldenRodYellow; margin: 4px; border: 1px solid khaki"> (100000073346#100000073498)</span></p><p><b>quantity</b>: 3</p><p><b>material</b>: Cardboard <span style="background: LightGoldenRodYellow; margin: 4px; border: 1px solid khaki"> (<a href="CodeSystem-material-ema-cs.html">Material EMA</a>#200000003529)</span></p></blockquote></blockquote></div>
        </text>
        <identifier>
          <system value="http://ema.europa.eu/example/pcid"/>
        </identifier>
        <packageFor>
          <reference value="MedicinalProductDefinition/Yaz-0023mg-tablet-SE-AJ-MedicinalProductDefinition"/>
        </packageFor>
        <containedItemQuantity>
          <value value="84"/>
          <unit value="tablet"/>
          <system value="https://spor.ema.europa.eu/v1/lists/200000000014"/>
          <code value="200000002152"/>
        </containedItemQuantity>
        <description value="Blister, 3 x 28 tabletter"/>
        <marketingStatus>
          <country>
            <coding>
              <system value="https://spor.ema.europa.eu/v1/lists/100000000002"/>
              <code value="100000000535"/>
              <display value="Kingdom of Sweden"/>
            </coding>
          </country>
          <status>
            <coding>
              <system value="https://spor.ema.europa.eu/v1/lists/100000072052"/>
              <code value="100000072083"/>
              <display value="Marketed"/>
            </coding>
          </status>
        </marketingStatus>
        <package>
          <type>
            <coding>
              <system value="https://spor.ema.europa.eu/v1/lists/100000073346"/>
              <code value="100000073498"/>
              <display value="Box"/>
            </coding>
          </type>
          <quantity value="1"/>
          <material>
            <coding>
              <system value="https://spor.ema.europa.eu/v1/lists/200000003199"/>
              <code value="200000003208"/>
              <display value="Plastic"/>
            </coding>
          </material>
          <shelfLifeStorage>
            <type>
              <coding>
                <system value="https://spor.ema.europa.eu/v1/lists/100000073343"/>
                <code value="100000073403"/>
                <display value="Shelf life of the medicinal product as packaged for sale"/>
              </coding>
            </type>
            <periodDuration>
              <value value="5"/>
              <unit value="Year"/>
              <system value="https://spor.ema.europa.eu/v1/lists/100000110633"/>
              <code value="200000003434"/>
            </periodDuration>
          </shelfLifeStorage>
          <package>
            <type>
              <coding>
                <system value="https://spor.ema.europa.eu/v1/lists/100000073346"/>
                <code value="100000073498"/>
                <display value="Box"/>
              </coding>
            </type>
            <quantity value="3"/>
            <material>
              <coding>
                <system value="https://spor.ema.europa.eu/v1/lists/200000003199"/>
                <code value="200000003529"/>
                <display value="Cardboard"/>
              </coding>
            </material>
            <package>
              <type>
                <coding>
                  <system value="https://spor.ema.europa.eu/v1/lists/100000073346"/>
                  <code value="100000073496"/>
                  <display value="Blister"/>
                </coding>
              </type>
              <quantity value="1"/>
              <material>
                <coding>
                  <system value="https://spor.ema.europa.eu/v1/lists/200000003199"/>
                  <code value="200000003200"/>
                  <display value="Aluminium"/>
                </coding>
              </material>
              <material>
                <coding>
                  <system value="https://spor.ema.europa.eu/v1/lists/200000003199"/>
                  <code value="200000003222"/>
                  <display value="PolyVinyl Chloride"/>
                </coding>
              </material>
              <containedItem>
                <item>
                  <reference>
                    <reference value="ManufacturedItemDefinition/Yaz-0023mg-tablet-SE-AJ-ManufacturedItemDefinition01"/>
                  </reference>
                </item>
                <amount>
                  <value value="24"/>
                  <unit value="tablet"/>
                  <system value="https://spor.ema.europa.eu/v1/lists/200000000014"/>
                  <code value="200000002152"/>
                </amount>
              </containedItem>
              <containedItem>
                <item>
                  <reference>
                    <reference value="ManufacturedItemDefinition/Yaz-0023mg-tablet-SE-AJ-ManufacturedItemDefinition02"/>
                  </reference>
                </item>
                <amount>
                  <value value="4"/>
                  <unit value="tablet"/>
                  <system value="https://spor.ema.europa.eu/v1/lists/200000000014"/>
                  <code value="200000002152"/>
                </amount>
              </containedItem>
            </package>
          </package>
        </package>
      </PackagedProductDefinition>
    </resource>
    <request>
      <method value="POST"/>
      <url value="PackagedProductDefinition/Yaz-0023mg-tablet-SE-AJ-PackagedProductDefinition"/>
    </request>
  </entry>
  <entry>
    <fullUrl value="https://hl7-eu.github.io/unicom-ig/branches/mpd-r4b/ManufacturedItemDefinition/Yaz-0023mg-tablet-SE-AJ-ManufacturedItemDefinition01"/>
    <resource>
      <ManufacturedItemDefinition>
        <id value="Yaz-0023mg-tablet-SE-AJ-ManufacturedItemDefinition01"/>
        <meta>
          <profile value="http://unicom-project.eu/fhir/StructureDefinition/PPLManufacturedItemDefinition"/>
        </meta>
        <text>
          <status value="generated"/><div xmlns="http://www.w3.org/1999/xhtml"><p><b>Generated Narrative: ManufacturedItemDefinition</b><a name="Yaz-0023mg-tablet-SE-AJ-ManufacturedItemDefinition01"> </a></p><div style="display: inline-block; background-color: #d9e0e7; padding: 6px; margin: 4px; border: 1px solid #8da1b4; border-radius: 5px; line-height: 60%"><p style="margin-bottom: 0px">Resource ManufacturedItemDefinition &quot;Yaz-0023mg-tablet-SE-AJ-ManufacturedItemDefinition01&quot; </p><p style="margin-bottom: 0px">Profile: <a href="StructureDefinition-PPLManufacturedItemDefinition.html">PPL Manufactured Item profile</a></p></div><p><b>status</b>: active</p><p><b>manufacturedDoseForm</b>: Film-coated tablet <span style="background: LightGoldenRodYellow; margin: 4px; border: 1px solid khaki"> (<a href="CodeSystem-pharmaceutical-dose-form-ema-cs.html">Pharmaceutical Dose Form EMA</a>#100000073665)</span></p><p><b>unitOfPresentation</b>: tablet <span style="background: LightGoldenRodYellow; margin: 4px; border: 1px solid khaki"> (<a href="CodeSystem-unit-of-presentation-ema-cs.html">Unit of Presentation EMA</a>#200000002152)</span></p></div>
        </text>
        <status value="active"/>
        <manufacturedDoseForm>
          <coding>
            <system value="https://spor.ema.europa.eu/v1/lists/200000000004"/>
            <code value="100000073665"/>
            <display value="Film-coated tablet"/>
          </coding>
        </manufacturedDoseForm>
        <unitOfPresentation>
          <coding>
            <system value="https://spor.ema.europa.eu/v1/lists/200000000014"/>
            <code value="200000002152"/>
            <display value="tablet"/>
          </coding>
        </unitOfPresentation>
      </ManufacturedItemDefinition>
    </resource>
    <request>
      <method value="POST"/>
      <url value="ManufacturedItemDefinition/Yaz-0023mg-tablet-SE-AJ-ManufacturedItemDefinition01"/>
    </request>
  </entry>
  <entry>
    <fullUrl value="https://hl7-eu.github.io/unicom-ig/branches/mpd-r4b/ManufacturedItemDefinition/Yaz-0023mg-tablet-SE-AJ-ManufacturedItemDefinition02"/>
    <resource>
      <ManufacturedItemDefinition>
        <id value="Yaz-0023mg-tablet-SE-AJ-ManufacturedItemDefinition02"/>
        <meta>
          <profile value="http://unicom-project.eu/fhir/StructureDefinition/PPLManufacturedItemDefinition"/>
        </meta>
        <text>
          <status value="generated"/><div xmlns="http://www.w3.org/1999/xhtml"><p><b>Generated Narrative: ManufacturedItemDefinition</b><a name="Yaz-0023mg-tablet-SE-AJ-ManufacturedItemDefinition02"> </a></p><div style="display: inline-block; background-color: #d9e0e7; padding: 6px; margin: 4px; border: 1px solid #8da1b4; border-radius: 5px; line-height: 60%"><p style="margin-bottom: 0px">Resource ManufacturedItemDefinition &quot;Yaz-0023mg-tablet-SE-AJ-ManufacturedItemDefinition02&quot; </p><p style="margin-bottom: 0px">Profile: <a href="StructureDefinition-PPLManufacturedItemDefinition.html">PPL Manufactured Item profile</a></p></div><p><b>status</b>: active</p><p><b>manufacturedDoseForm</b>: Film-coated tablet <span style="background: LightGoldenRodYellow; margin: 4px; border: 1px solid khaki"> (<a href="CodeSystem-pharmaceutical-dose-form-ema-cs.html">Pharmaceutical Dose Form EMA</a>#100000073665)</span></p><p><b>unitOfPresentation</b>: tablet <span style="background: LightGoldenRodYellow; margin: 4px; border: 1px solid khaki"> (<a href="CodeSystem-unit-of-presentation-ema-cs.html">Unit of Presentation EMA</a>#200000002152)</span></p></div>
        </text>
        <status value="active"/>
        <manufacturedDoseForm>
          <coding>
            <system value="https://spor.ema.europa.eu/v1/lists/200000000004"/>
            <code value="100000073665"/>
            <display value="Film-coated tablet"/>
          </coding>
        </manufacturedDoseForm>
        <unitOfPresentation>
          <coding>
            <system value="https://spor.ema.europa.eu/v1/lists/200000000014"/>
            <code value="200000002152"/>
            <display value="tablet"/>
          </coding>
        </unitOfPresentation>
      </ManufacturedItemDefinition>
    </resource>
    <request>
      <method value="POST"/>
      <url value="ManufacturedItemDefinition/Yaz-0023mg-tablet-SE-AJ-ManufacturedItemDefinition02"/>
    </request>
  </entry>
  <entry>
    <fullUrl value="https://hl7-eu.github.io/unicom-ig/branches/mpd-r4b/Ingredient/Yaz-0023mg-tablet-SE-AJ-Ingredient01"/>
    <resource>
      <Ingredient>
        <id value="Yaz-0023mg-tablet-SE-AJ-Ingredient01"/>
        <meta>
          <profile value="http://unicom-project.eu/fhir/StructureDefinition/PPLIngredient"/>
        </meta>
        <text>
          <status value="generated"/><div xmlns="http://www.w3.org/1999/xhtml"><p><b>Generated Narrative: Ingredient</b><a name="Yaz-0023mg-tablet-SE-AJ-Ingredient01"> </a></p><div style="display: inline-block; background-color: #d9e0e7; padding: 6px; margin: 4px; border: 1px solid #8da1b4; border-radius: 5px; line-height: 60%"><p style="margin-bottom: 0px">Resource Ingredient &quot;Yaz-0023mg-tablet-SE-AJ-Ingredient01&quot; </p><p style="margin-bottom: 0px">Profile: <a href="StructureDefinition-PPLIngredient.html">PPL Ingredient profile</a></p></div><p><b>status</b>: active</p><p><b>for</b>: </p><ul><li><a href="#MedicinalProductDefinition_Yaz-0023mg-tablet-SE-AJ-MedicinalProductDefinition">See above (MedicinalProductDefinition/Yaz-0023mg-tablet-SE-AJ-MedicinalProductDefinition)</a></li><li><a href="#ManufacturedItemDefinition_Yaz-0023mg-tablet-SE-AJ-ManufacturedItemDefinition01">See above (ManufacturedItemDefinition/Yaz-0023mg-tablet-SE-AJ-ManufacturedItemDefinition01)</a></li><li><a href="#AdministrableProductDefinition_Yaz-0023mg-tablet-SE-AJ-AdministrableProductDefinition01">See above (AdministrableProductDefinition/Yaz-0023mg-tablet-SE-AJ-AdministrableProductDefinition01)</a></li></ul><p><b>role</b>: Active <span style="background: LightGoldenRodYellow; margin: 4px; border: 1px solid khaki"> (100000072050#100000072072)</span></p><blockquote><p><b>substance</b></p><h3>Codes</h3><table class="grid"><tr><td>-</td><td><b>Concept</b></td></tr><tr><td>*</td><td>Ethinylestradiol betadex clathrate <span style="background: LightGoldenRodYellow; margin: 4px; border: 1px solid khaki"> (SubstanceDefinition#100000091531)</span></td></tr></table><blockquote><p><b>strength</b></p><p><b>presentation</b>: 173.17 microgram(s)<span style="background: LightGoldenRodYellow"> (Details: https://spor.ema.europa.eu/v1/lists/100000110633 code 100000110656 = 'microgram(s)')</span>/1 tablet<span style="background: LightGoldenRodYellow"> (Details: https://spor.ema.europa.eu/v1/lists/200000000014 code 200000002152 = 'Tablet')</span></p><blockquote><p><b>referenceStrength</b></p><h3>Substances</h3><table class="grid"><tr><td>-</td><td><b>Concept</b></td></tr><tr><td>*</td><td>Ethinylestradiol <span style="background: LightGoldenRodYellow; margin: 4px; border: 1px solid khaki"> (SubstanceDefinition#100000091721)</span></td></tr></table><p><b>strength</b>: 20 microgram(s)<span style="background: LightGoldenRodYellow"> (Details: https://spor.ema.europa.eu/v1/lists/100000110633 code 100000110656 = 'microgram(s)')</span>/1 tablet<span style="background: LightGoldenRodYellow"> (Details: https://spor.ema.europa.eu/v1/lists/200000000014 code 200000002152 = 'Tablet')</span></p></blockquote></blockquote></blockquote></div>
        </text>
        <status value="active"/>
        <for>
          <reference value="MedicinalProductDefinition/Yaz-0023mg-tablet-SE-AJ-MedicinalProductDefinition"/>
        </for>
        <for>
          <reference value="ManufacturedItemDefinition/Yaz-0023mg-tablet-SE-AJ-ManufacturedItemDefinition01"/>
        </for>
        <for>
          <reference value="AdministrableProductDefinition/Yaz-0023mg-tablet-SE-AJ-AdministrableProductDefinition01"/>
        </for>
        <role>
          <coding>
            <system value="https://spor.ema.europa.eu/v1/lists/100000072050"/>
            <code value="100000072072"/>
            <display value="Active"/>
          </coding>
        </role>
        <substance>
          <code>
            <concept>
              <coding>
                <system value="https://spor.ema.europa.eu/v2/SubstanceDefinition"/>
                <code value="100000091531"/>
                <display value="Ethinylestradiol betadex clathrate"/>
              </coding>
            </concept>
          </code>
          <strength>
            <presentationRatio>
              <numerator>
                <value value="173.17"/>
                <unit value="microgram(s)"/>
                <system value="https://spor.ema.europa.eu/v1/lists/100000110633"/>
                <code value="100000110656"/>
              </numerator>
              <denominator>
                <value value="1"/>
                <unit value="tablet"/>
                <system value="https://spor.ema.europa.eu/v1/lists/200000000014"/>
                <code value="200000002152"/>
              </denominator>
            </presentationRatio>
            <referenceStrength>
              <substance>
                <concept>
                  <coding>
                    <system value="https://spor.ema.europa.eu/v2/SubstanceDefinition"/>
                    <code value="100000091721"/>
                    <display value="Ethinylestradiol"/>
                  </coding>
                </concept>
              </substance>
              <strengthRatio>
                <numerator>
                  <value value="20"/>
                  <unit value="microgram(s)"/>
                  <system value="https://spor.ema.europa.eu/v1/lists/100000110633"/>
                  <code value="100000110656"/>
                </numerator>
                <denominator>
                  <value value="1"/>
                  <unit value="tablet"/>
                  <system value="https://spor.ema.europa.eu/v1/lists/200000000014"/>
                  <code value="200000002152"/>
                </denominator>
              </strengthRatio>
            </referenceStrength>
          </strength>
        </substance>
      </Ingredient>
    </resource>
    <request>
      <method value="POST"/>
      <url value="Ingredient/Yaz-0023mg-tablet-SE-AJ-Ingredient01"/>
    </request>
  </entry>
  <entry>
    <fullUrl value="https://hl7-eu.github.io/unicom-ig/branches/mpd-r4b/Ingredient/Yaz-0023mg-tablet-SE-AJ-Ingredient02"/>
    <resource>
      <Ingredient>
        <id value="Yaz-0023mg-tablet-SE-AJ-Ingredient02"/>
        <meta>
          <profile value="http://unicom-project.eu/fhir/StructureDefinition/PPLIngredient"/>
        </meta>
        <text>
          <status value="generated"/><div xmlns="http://www.w3.org/1999/xhtml"><p><b>Generated Narrative: Ingredient</b><a name="Yaz-0023mg-tablet-SE-AJ-Ingredient02"> </a></p><div style="display: inline-block; background-color: #d9e0e7; padding: 6px; margin: 4px; border: 1px solid #8da1b4; border-radius: 5px; line-height: 60%"><p style="margin-bottom: 0px">Resource Ingredient &quot;Yaz-0023mg-tablet-SE-AJ-Ingredient02&quot; </p><p style="margin-bottom: 0px">Profile: <a href="StructureDefinition-PPLIngredient.html">PPL Ingredient profile</a></p></div><p><b>status</b>: active</p><p><b>for</b>: </p><ul><li><a href="#MedicinalProductDefinition_Yaz-0023mg-tablet-SE-AJ-MedicinalProductDefinition">See above (MedicinalProductDefinition/Yaz-0023mg-tablet-SE-AJ-MedicinalProductDefinition)</a></li><li><a href="#ManufacturedItemDefinition_Yaz-0023mg-tablet-SE-AJ-ManufacturedItemDefinition02">See above (ManufacturedItemDefinition/Yaz-0023mg-tablet-SE-AJ-ManufacturedItemDefinition02)</a></li><li><a href="#AdministrableProductDefinition_Yaz-0023mg-tablet-SE-AJ-AdministrableProductDefinition02">See above (AdministrableProductDefinition/Yaz-0023mg-tablet-SE-AJ-AdministrableProductDefinition02)</a></li></ul><p><b>role</b>: Excipient <span style="background: LightGoldenRodYellow; margin: 4px; border: 1px solid khaki"> (100000072050#100000072082)</span></p><blockquote><p><b>substance</b></p><h3>Codes</h3><table class="grid"><tr><td>-</td><td><b>Concept</b></td></tr><tr><td>*</td><td>Lactose monohydrate <span style="background: LightGoldenRodYellow; margin: 4px; border: 1px solid khaki"> (SubstanceDefinition#100000093305)</span></td></tr></table><blockquote><p><b>strength</b></p><p><b>presentation</b>: 23.2 milligram(s)<span style="background: LightGoldenRodYellow"> (Details: https://spor.ema.europa.eu/v1/lists/100000110633 code 100000110655 = 'milligram(s)')</span>/1 tablet<span style="background: LightGoldenRodYellow"> (Details: https://spor.ema.europa.eu/v1/lists/200000000014 code 200000002152 = 'Tablet')</span></p><blockquote><p><b>referenceStrength</b></p><h3>Substances</h3><table class="grid"><tr><td>-</td><td><b>Concept</b></td></tr><tr><td>*</td><td>lactose <span style="background: LightGoldenRodYellow; margin: 4px; border: 1px solid khaki"> (SubstanceDefinition#100000090052)</span></td></tr></table><p><b>strength</b>: 22 milligram(s)<span style="background: LightGoldenRodYellow"> (Details: https://spor.ema.europa.eu/v1/lists/100000110633 code 100000110655 = 'milligram(s)')</span>/1 tablet<span style="background: LightGoldenRodYellow"> (Details: https://spor.ema.europa.eu/v1/lists/200000000014 code 200000002152 = 'Tablet')</span></p></blockquote></blockquote></blockquote></div>
        </text>
        <status value="active"/>
        <for>
          <reference value="MedicinalProductDefinition/Yaz-0023mg-tablet-SE-AJ-MedicinalProductDefinition"/>
        </for>
        <for>
          <reference value="ManufacturedItemDefinition/Yaz-0023mg-tablet-SE-AJ-ManufacturedItemDefinition02"/>
        </for>
        <for>
          <reference value="AdministrableProductDefinition/Yaz-0023mg-tablet-SE-AJ-AdministrableProductDefinition02"/>
        </for>
        <role>
          <coding>
            <system value="https://spor.ema.europa.eu/v1/lists/100000072050"/>
            <code value="100000072082"/>
            <display value="Excipient"/>
          </coding>
        </role>
        <substance>
          <code>
            <concept>
              <coding>
                <system value="https://spor.ema.europa.eu/v2/SubstanceDefinition"/>
                <code value="100000093305"/>
                <display value="Lactose monohydrate"/>
              </coding>
            </concept>
          </code>
          <strength>
            <presentationRatio>
              <numerator>
                <value value="23.2"/>
                <unit value="milligram(s)"/>
                <system value="https://spor.ema.europa.eu/v1/lists/100000110633"/>
                <code value="100000110655"/>
              </numerator>
              <denominator>
                <value value="1"/>
                <unit value="tablet"/>
                <system value="https://spor.ema.europa.eu/v1/lists/200000000014"/>
                <code value="200000002152"/>
              </denominator>
            </presentationRatio>
            <referenceStrength>
              <substance>
                <concept>
                  <coding>
                    <system value="https://spor.ema.europa.eu/v2/SubstanceDefinition"/>
                    <code value="100000090052"/>
                    <display value="lactose"/>
                  </coding>
                </concept>
              </substance>
              <strengthRatio>
                <numerator>
                  <value value="22"/>
                  <unit value="milligram(s)"/>
                  <system value="https://spor.ema.europa.eu/v1/lists/100000110633"/>
                  <code value="100000110655"/>
                </numerator>
                <denominator>
                  <value value="1"/>
                  <unit value="tablet"/>
                  <system value="https://spor.ema.europa.eu/v1/lists/200000000014"/>
                  <code value="200000002152"/>
                </denominator>
              </strengthRatio>
            </referenceStrength>
          </strength>
        </substance>
      </Ingredient>
    </resource>
    <request>
      <method value="POST"/>
      <url value="Ingredient/Yaz-0023mg-tablet-SE-AJ-Ingredient02"/>
    </request>
  </entry>
  <entry>
    <fullUrl value="https://hl7-eu.github.io/unicom-ig/branches/mpd-r4b/Ingredient/Yaz-0023mg-tablet-SE-AJ-Ingredient03"/>
    <resource>
      <Ingredient>
        <id value="Yaz-0023mg-tablet-SE-AJ-Ingredient03"/>
        <meta>
          <profile value="http://unicom-project.eu/fhir/StructureDefinition/PPLIngredient"/>
        </meta>
        <text>
          <status value="generated"/><div xmlns="http://www.w3.org/1999/xhtml"><p><b>Generated Narrative: Ingredient</b><a name="Yaz-0023mg-tablet-SE-AJ-Ingredient03"> </a></p><div style="display: inline-block; background-color: #d9e0e7; padding: 6px; margin: 4px; border: 1px solid #8da1b4; border-radius: 5px; line-height: 60%"><p style="margin-bottom: 0px">Resource Ingredient &quot;Yaz-0023mg-tablet-SE-AJ-Ingredient03&quot; </p><p style="margin-bottom: 0px">Profile: <a href="StructureDefinition-PPLIngredient.html">PPL Ingredient profile</a></p></div><p><b>status</b>: active</p><p><b>for</b>: </p><ul><li><a href="#MedicinalProductDefinition_Yaz-0023mg-tablet-SE-AJ-MedicinalProductDefinition">See above (MedicinalProductDefinition/Yaz-0023mg-tablet-SE-AJ-MedicinalProductDefinition)</a></li><li><a href="#ManufacturedItemDefinition_Yaz-0023mg-tablet-SE-AJ-ManufacturedItemDefinition01">See above (ManufacturedItemDefinition/Yaz-0023mg-tablet-SE-AJ-ManufacturedItemDefinition01)</a></li><li><a href="#AdministrableProductDefinition_Yaz-0023mg-tablet-SE-AJ-AdministrableProductDefinition01">See above (AdministrableProductDefinition/Yaz-0023mg-tablet-SE-AJ-AdministrableProductDefinition01)</a></li></ul><p><b>role</b>: Active <span style="background: LightGoldenRodYellow; margin: 4px; border: 1px solid khaki"> (100000072050#100000072072)</span></p><blockquote><p><b>substance</b></p><h3>Codes</h3><table class="grid"><tr><td>-</td><td><b>Concept</b></td></tr><tr><td>*</td><td>drospirenone <span style="background: LightGoldenRodYellow; margin: 4px; border: 1px solid khaki"> (SubstanceDefinition#100000092375)</span></td></tr></table><blockquote><p><b>strength</b></p><p><b>presentation</b>: 3 milligram(s)<span style="background: LightGoldenRodYellow"> (Details: https://spor.ema.europa.eu/v1/lists/100000110633 code 100000110655 = 'milligram(s)')</span>/1 tablet<span style="background: LightGoldenRodYellow"> (Details: https://spor.ema.europa.eu/v1/lists/200000000014 code 200000002152 = 'Tablet')</span></p><blockquote><p><b>referenceStrength</b></p><h3>Substances</h3><table class="grid"><tr><td>-</td><td><b>Concept</b></td></tr><tr><td>*</td><td>drospirenone <span style="background: LightGoldenRodYellow; margin: 4px; border: 1px solid khaki"> (SubstanceDefinition#100000092375)</span></td></tr></table><p><b>strength</b>: 3 milligram(s)<span style="background: LightGoldenRodYellow"> (Details: https://spor.ema.europa.eu/v1/lists/100000110633 code 100000110655 = 'milligram(s)')</span>/1 tablet<span style="background: LightGoldenRodYellow"> (Details: https://spor.ema.europa.eu/v1/lists/200000000014 code 200000002152 = 'Tablet')</span></p></blockquote></blockquote></blockquote></div>
        </text>
        <status value="active"/>
        <for>
          <reference value="MedicinalProductDefinition/Yaz-0023mg-tablet-SE-AJ-MedicinalProductDefinition"/>
        </for>
        <for>
          <reference value="ManufacturedItemDefinition/Yaz-0023mg-tablet-SE-AJ-ManufacturedItemDefinition01"/>
        </for>
        <for>
          <reference value="AdministrableProductDefinition/Yaz-0023mg-tablet-SE-AJ-AdministrableProductDefinition01"/>
        </for>
        <role>
          <coding>
            <system value="https://spor.ema.europa.eu/v1/lists/100000072050"/>
            <code value="100000072072"/>
            <display value="Active"/>
          </coding>
        </role>
        <substance>
          <code>
            <concept>
              <coding>
                <system value="https://spor.ema.europa.eu/v2/SubstanceDefinition"/>
                <code value="100000092375"/>
                <display value="drospirenone"/>
              </coding>
            </concept>
          </code>
          <strength>
            <presentationRatio>
              <numerator>
                <value value="3"/>
                <unit value="milligram(s)"/>
                <system value="https://spor.ema.europa.eu/v1/lists/100000110633"/>
                <code value="100000110655"/>
              </numerator>
              <denominator>
                <value value="1"/>
                <unit value="tablet"/>
                <system value="https://spor.ema.europa.eu/v1/lists/200000000014"/>
                <code value="200000002152"/>
              </denominator>
            </presentationRatio>
            <referenceStrength>
              <substance>
                <concept>
                  <coding>
                    <system value="https://spor.ema.europa.eu/v2/SubstanceDefinition"/>
                    <code value="100000092375"/>
                    <display value="drospirenone"/>
                  </coding>
                </concept>
              </substance>
              <strengthRatio>
                <numerator>
                  <value value="3"/>
                  <unit value="milligram(s)"/>
                  <system value="https://spor.ema.europa.eu/v1/lists/100000110633"/>
                  <code value="100000110655"/>
                </numerator>
                <denominator>
                  <value value="1"/>
                  <unit value="tablet"/>
                  <system value="https://spor.ema.europa.eu/v1/lists/200000000014"/>
                  <code value="200000002152"/>
                </denominator>
              </strengthRatio>
            </referenceStrength>
          </strength>
        </substance>
      </Ingredient>
    </resource>
    <request>
      <method value="POST"/>
      <url value="Ingredient/Yaz-0023mg-tablet-SE-AJ-Ingredient03"/>
    </request>
  </entry>
</Bundle>