{
  "resourceType": "Bundle",
  "id": "007-Jangee-0.02mg-3mg-Film-coated-tablet-EE-FullProduct",
  "type": "batch",
  "entry": [
    {
      "fullUrl": "https://hl7-eu.github.io/unicom-ig/branches/mpd-r4b/MedicinalProductDefinition/Jangee-0.02mg-3mg-Film-coated-tablet-EE-MPD",
      "resource": {
        "resourceType": "MedicinalProductDefinition",
        "id": "Jangee-0.02mg-3mg-Film-coated-tablet-EE-MPD",
        "meta": {
          "profile": [
            "http://unicom-project.eu/fhir/StructureDefinition/PPLMedicinalProductDefinition"
          ]
        },
        "text": {
          "status": "generated",
          "div": "<div xmlns=\"http://www.w3.org/1999/xhtml\"><p><b>Generated Narrative: MedicinalProductDefinition</b><a name=\"Jangee-0.02mg-3mg-Film-coated-tablet-EE-MPD\"> </a></p><div style=\"display: inline-block; background-color: #d9e0e7; padding: 6px; margin: 4px; border: 1px solid #8da1b4; border-radius: 5px; line-height: 60%\"><p style=\"margin-bottom: 0px\">Resource MedicinalProductDefinition &quot;Jangee-0.02mg-3mg-Film-coated-tablet-EE-MPD&quot; </p><p style=\"margin-bottom: 0px\">Profile: <a href=\"StructureDefinition-PPLMedicinalProductDefinition.html\">PPL Medicinal Product profile</a></p></div><p><b>identifier</b>: id: EE-100005719-2603</p><p><b>domain</b>: Human use <span style=\"background: LightGoldenRodYellow; margin: 4px; border: 1px solid khaki\"> (<a href=\"CodeSystem-domain-ema-cs.html\">Domain EMA</a>#100000000012)</span></p><p><b>status</b>: Current <span style=\"background: LightGoldenRodYellow; margin: 4px; border: 1px solid khaki\"> (200000005003#200000005004)</span></p><p><b>combinedPharmaceuticalDoseForm</b>: Film-coated tablet <span style=\"background: LightGoldenRodYellow; margin: 4px; border: 1px solid khaki\"> (<a href=\"CodeSystem-pharmaceutical-dose-form-ema-cs.html\">Pharmaceutical Dose Form EMA</a>#100000073665)</span></p><p><b>legalStatusOfSupply</b>: Medicinal product subject to medical prescription <span style=\"background: LightGoldenRodYellow; margin: 4px; border: 1px solid khaki\"> (<a href=\"CodeSystem-legal-status-for-the-supply-ema-cs.html\">Legal Status for the Supply EMA</a>#100000072084)</span></p><p><b>classification</b>: G03AA12 <span style=\"background: LightGoldenRodYellow; margin: 4px; border: 1px solid khaki\"> (100000093533#100000095785)</span></p><blockquote><p><b>name</b></p><p><b>productName</b>: Jangee 0.02 mg/3 mg, õhukese polümeerikattega tabletid</p><blockquote><p><b>namePart</b></p><p><b>part</b>: Jangee</p><p><b>type</b>: Invented name part <span style=\"background: LightGoldenRodYellow; margin: 4px; border: 1px solid khaki\"> (220000000000#220000000002)</span></p></blockquote><blockquote><p><b>namePart</b></p><p><b>part</b>: 0.02 mg/3 mg</p><p><b>type</b>: Strength part <span style=\"background: LightGoldenRodYellow; margin: 4px; border: 1px solid khaki\"> (220000000000#220000000004)</span></p></blockquote><blockquote><p><b>namePart</b></p><p><b>part</b>: Õhukese polümeerikattega tabletid</p><p><b>type</b>: Pharmaceutical dose form part <span style=\"background: LightGoldenRodYellow; margin: 4px; border: 1px solid khaki\"> (220000000000#220000000005)</span></p></blockquote><h3>CountryLanguages</h3><table class=\"grid\"><tr><td>-</td><td><b>Country</b></td><td><b>Language</b></td></tr><tr><td>*</td><td>Republic of Estonia <span style=\"background: LightGoldenRodYellow; margin: 4px; border: 1px solid khaki\"> (<a href=\"CodeSystem-country-ema-cs.html\">Country EMA</a>#100000000388)</span></td><td>Estonian <span style=\"background: LightGoldenRodYellow; margin: 4px; border: 1px solid khaki\"> (<a href=\"CodeSystem-language-ema-cs.html\">Language EMA</a>#100000072172)</span></td></tr></table></blockquote></div>"
        },
        "identifier": [
          {
            "system": "http://ema.europa.eu/fhir/mpId",
            "value": "EE-100005719-2603"
          }
        ],
        "domain": {
          "coding": [
            {
              "system": "https://spor.ema.europa.eu/v1/lists/100000000004",
              "code": "100000000012",
              "display": "Human use"
            }
          ]
        },
        "status": {
          "coding": [
            {
              "system": "https://spor.ema.europa.eu/v1/lists/200000005003",
              "code": "200000005004",
              "display": "Current"
            }
          ]
        },
        "combinedPharmaceuticalDoseForm": {
          "coding": [
            {
              "system": "https://spor.ema.europa.eu/v1/lists/200000000004",
              "code": "100000073665",
              "display": "Film-coated tablet"
            }
          ]
        },
        "legalStatusOfSupply": {
          "coding": [
            {
              "system": "https://spor.ema.europa.eu/v1/lists/100000072051",
              "code": "100000072084",
              "display": "Medicinal product subject to medical prescription"
            }
          ]
        },
        "classification": [
          {
            "coding": [
              {
                "system": "https://spor.ema.europa.eu/v1/lists/100000093533",
                "code": "100000095785",
                "display": "G03AA12"
              }
            ]
          }
        ],
        "name": [
          {
            "productName": "Jangee 0.02 mg/3 mg, õhukese polümeerikattega tabletid",
            "namePart": [
              {
                "part": "Jangee",
                "type": {
                  "coding": [
                    {
                      "system": "https://spor.ema.europa.eu/v1/lists/220000000000",
                      "code": "220000000002",
                      "display": "Invented name part"
                    }
                  ]
                }
              },
              {
                "part": "0.02 mg/3 mg",
                "type": {
                  "coding": [
                    {
                      "system": "https://spor.ema.europa.eu/v1/lists/220000000000",
                      "code": "220000000004",
                      "display": "Strength part"
                    }
                  ]
                }
              },
              {
                "part": "Õhukese polümeerikattega tabletid",
                "type": {
                  "coding": [
                    {
                      "system": "https://spor.ema.europa.eu/v1/lists/220000000000",
                      "code": "220000000005",
                      "display": "Pharmaceutical dose form part"
                    }
                  ]
                }
              }
            ],
            "countryLanguage": [
              {
                "country": {
                  "coding": [
                    {
                      "system": "https://spor.ema.europa.eu/v1/lists/100000000002",
                      "code": "100000000388",
                      "display": "Republic of Estonia"
                    }
                  ]
                },
                "language": {
                  "coding": [
                    {
                      "system": "https://spor.ema.europa.eu/v1/lists/100000072057",
                      "code": "100000072172",
                      "display": "Estonian"
                    }
                  ]
                }
              }
            ]
          }
        ]
      },
      "request": {
        "method": "POST",
        "url": "MedicinalProductDefinition/Jangee-0.02mg-3mg-Film-coated-tablet-EE-MPD"
      }
    },
    {
      "fullUrl": "https://hl7-eu.github.io/unicom-ig/branches/mpd-r4b/Organization/LOC-100005719-ExeltisBalticsUAB",
      "resource": {
        "resourceType": "Organization",
        "id": "LOC-100005719-ExeltisBalticsUAB",
        "meta": {
          "profile": [
            "http://unicom-project.eu/fhir/StructureDefinition/PPLOrganization"
          ]
        },
        "text": {
          "status": "generated",
          "div": "<div xmlns=\"http://www.w3.org/1999/xhtml\"><p><b>Generated Narrative: Organization</b><a name=\"LOC-100005719-ExeltisBalticsUAB\"> </a></p><div style=\"display: inline-block; background-color: #d9e0e7; padding: 6px; margin: 4px; border: 1px solid #8da1b4; border-radius: 5px; line-height: 60%\"><p style=\"margin-bottom: 0px\">Resource Organization &quot;LOC-100005719-ExeltisBalticsUAB&quot; </p><p style=\"margin-bottom: 0px\">Profile: <a href=\"StructureDefinition-PPLOrganization.html\">PPL Organization</a></p></div><p><b>identifier</b>: id: LOC-100005719</p><p><b>name</b>: Exeltis Baltics UAB</p></div>"
        },
        "identifier": [
          {
            "system": "https://spor.ema.europa.eu/v1/locations",
            "value": "LOC-100005719"
          }
        ],
        "name": "Exeltis Baltics UAB"
      },
      "request": {
        "method": "POST",
        "url": "LOC-100005719-ExeltisBalticsUAB"
      }
    },
    {
      "fullUrl": "https://hl7-eu.github.io/unicom-ig/branches/mpd-r4b/RegulatedAuthorization/Jangee-0.02mg-3mg-Film-coated-tablet-EE-RA",
      "resource": {
        "resourceType": "RegulatedAuthorization",
        "id": "Jangee-0.02mg-3mg-Film-coated-tablet-EE-RA",
        "meta": {
          "profile": [
            "http://unicom-project.eu/fhir/StructureDefinition/PPLRegulatedAuthorization"
          ]
        },
        "text": {
          "status": "generated",
          "div": "<div xmlns=\"http://www.w3.org/1999/xhtml\"><p><b>Generated Narrative: RegulatedAuthorization</b><a name=\"Jangee-0.02mg-3mg-Film-coated-tablet-EE-RA\"> </a></p><div style=\"display: inline-block; background-color: #d9e0e7; padding: 6px; margin: 4px; border: 1px solid #8da1b4; border-radius: 5px; line-height: 60%\"><p style=\"margin-bottom: 0px\">Resource RegulatedAuthorization &quot;Jangee-0.02mg-3mg-Film-coated-tablet-EE-RA&quot; </p><p style=\"margin-bottom: 0px\">Profile: <a href=\"StructureDefinition-PPLRegulatedAuthorization.html\">PPL Marketing Authorisation profile</a></p></div><p><b>identifier</b>: id: 650509</p><p><b>subject</b>: <a href=\"#MedicinalProductDefinition_Jangee-0.02mg-3mg-Film-coated-tablet-EE-MPD\">See above (MedicinalProductDefinition/Jangee-0.02mg-3mg-Film-coated-tablet-EE-MPD)</a></p><p><b>type</b>: Marketing Authorisation <span style=\"background: LightGoldenRodYellow; margin: 4px; border: 1px solid khaki\"> (220000000060#220000000061)</span></p><p><b>region</b>: Republic of Estonia <span style=\"background: LightGoldenRodYellow; margin: 4px; border: 1px solid khaki\"> (<a href=\"CodeSystem-country-ema-cs.html\">Country EMA</a>#100000000388)</span></p><p><b>status</b>: Renewed/Varied <span style=\"background: LightGoldenRodYellow; margin: 4px; border: 1px solid khaki\"> (100000072049#200000017708)</span></p><p><b>statusDate</b>: 2016-09-14</p><p><b>holder</b>: <a href=\"#Organization_LOC-100005719-ExeltisBalticsUAB\">See above (Organization/LOC-100005719-ExeltisBalticsUAB)</a></p></div>"
        },
        "identifier": [
          {
            "value": "650509"
          }
        ],
        "subject": [
          {
            "reference": "MedicinalProductDefinition/Jangee-0.02mg-3mg-Film-coated-tablet-EE-MPD"
          }
        ],
        "type": {
          "coding": [
            {
              "system": "https://spor.ema.europa.eu/v1/lists/220000000060",
              "code": "220000000061",
              "display": "Marketing Authorisation"
            }
          ]
        },
        "region": [
          {
            "coding": [
              {
                "system": "https://spor.ema.europa.eu/v1/lists/100000000002",
                "code": "100000000388",
                "display": "Republic of Estonia"
              }
            ]
          }
        ],
        "status": {
          "coding": [
            {
              "system": "https://spor.ema.europa.eu/v1/lists/100000072049",
              "code": "200000017708",
              "display": "Renewed/Varied"
            }
          ]
        },
        "statusDate": "2016-09-14",
        "holder": {
          "reference": "Organization/LOC-100005719-ExeltisBalticsUAB"
        }
      },
      "request": {
        "method": "POST",
        "url": "RegulatedAuthorization/Jangee-0.02mg-3mg-Film-coated-tablet-EE-RA"
      }
    },
    {
      "fullUrl": "https://hl7-eu.github.io/unicom-ig/branches/mpd-r4b/AdministrableProductDefinition/Jangee-0.02mg-3mg-Film-coated-tablet-EE-APD",
      "resource": {
        "resourceType": "AdministrableProductDefinition",
        "id": "Jangee-0.02mg-3mg-Film-coated-tablet-EE-APD",
        "meta": {
          "profile": [
            "http://unicom-project.eu/fhir/StructureDefinition/PPLAdministrableProductDefinition"
          ]
        },
        "text": {
          "status": "generated",
          "div": "<div xmlns=\"http://www.w3.org/1999/xhtml\"><p><b>Generated Narrative: AdministrableProductDefinition</b><a name=\"Jangee-0.02mg-3mg-Film-coated-tablet-EE-APD\"> </a></p><div style=\"display: inline-block; background-color: #d9e0e7; padding: 6px; margin: 4px; border: 1px solid #8da1b4; border-radius: 5px; line-height: 60%\"><p style=\"margin-bottom: 0px\">Resource AdministrableProductDefinition &quot;Jangee-0.02mg-3mg-Film-coated-tablet-EE-APD&quot; </p><p style=\"margin-bottom: 0px\">Profile: <a href=\"StructureDefinition-PPLAdministrableProductDefinition.html\">PPL Administrable Product profile</a></p></div><p><b>status</b>: active</p><p><b>formOf</b>: <a href=\"#MedicinalProductDefinition_Jangee-0.02mg-3mg-Film-coated-tablet-EE-MPD\">See above (MedicinalProductDefinition/Jangee-0.02mg-3mg-Film-coated-tablet-EE-MPD)</a></p><p><b>administrableDoseForm</b>: Film-coated tablet <span style=\"background: LightGoldenRodYellow; margin: 4px; border: 1px solid khaki\"> (<a href=\"CodeSystem-pharmaceutical-dose-form-ema-cs.html\">Pharmaceutical Dose Form EMA</a>#100000073665)</span></p><p><b>producedFrom</b>: <a href=\"#ManufacturedItemDefinition_Jangee-0.02mg-3mg-Film-coated-tablet-EE-MID\">See above (ManufacturedItemDefinition/Jangee-0.02mg-3mg-Film-coated-tablet-EE-MID)</a></p><h3>RouteOfAdministrations</h3><table class=\"grid\"><tr><td>-</td><td><b>Code</b></td></tr><tr><td>*</td><td>Oral use <span style=\"background: LightGoldenRodYellow; margin: 4px; border: 1px solid khaki\"> (<a href=\"CodeSystem-routes-and-methods-of-administration-ema-cs.html\">Routes and Methods of Administration EMA</a>#100000073619)</span></td></tr></table></div>"
        },
        "status": "active",
        "formOf": [
          {
            "reference": "MedicinalProductDefinition/Jangee-0.02mg-3mg-Film-coated-tablet-EE-MPD"
          }
        ],
        "administrableDoseForm": {
          "coding": [
            {
              "system": "https://spor.ema.europa.eu/v1/lists/200000000004",
              "code": "100000073665",
              "display": "Film-coated tablet"
            }
          ]
        },
        "producedFrom": [
          {
            "reference": "ManufacturedItemDefinition/Jangee-0.02mg-3mg-Film-coated-tablet-EE-MID"
          }
        ],
        "routeOfAdministration": [
          {
            "code": {
              "coding": [
                {
                  "system": "https://spor.ema.europa.eu/v1/lists/100000073345",
                  "code": "100000073619",
                  "display": "Oral use"
                }
              ]
            }
          }
        ]
      },
      "request": {
        "method": "POST",
        "url": "AdministrableProductDefinition/Jangee-0.02mg-3mg-Film-coated-tablet-EE-APD"
      }
    },
    {
      "fullUrl": "https://hl7-eu.github.io/unicom-ig/branches/mpd-r4b/PackagedProductDefinition/Jangee-0.02mg-3mg-Film-coated-tablet-EE-PPD",
      "resource": {
        "resourceType": "PackagedProductDefinition",
        "id": "Jangee-0.02mg-3mg-Film-coated-tablet-EE-PPD",
        "meta": {
          "profile": [
            "http://unicom-project.eu/fhir/StructureDefinition/PPLPackagedProductDefinition"
          ]
        },
        "text": {
          "status": "generated",
          "div": "<div xmlns=\"http://www.w3.org/1999/xhtml\"><p><b>Generated Narrative: PackagedProductDefinition</b><a name=\"Jangee-0.02mg-3mg-Film-coated-tablet-EE-PPD\"> </a></p><div style=\"display: inline-block; background-color: #d9e0e7; padding: 6px; margin: 4px; border: 1px solid #8da1b4; border-radius: 5px; line-height: 60%\"><p style=\"margin-bottom: 0px\">Resource PackagedProductDefinition &quot;Jangee-0.02mg-3mg-Film-coated-tablet-EE-PPD&quot; </p><p style=\"margin-bottom: 0px\">Profile: <a href=\"StructureDefinition-PPLPackagedProductDefinition.html\">PPL Packaged Product profile</a></p></div><p><b>identifier</b>: id: EE-100005719-2603-1331019</p><p><b>packageFor</b>: <a href=\"#MedicinalProductDefinition_Jangee-0.02mg-3mg-Film-coated-tablet-EE-MPD\">See above (MedicinalProductDefinition/Jangee-0.02mg-3mg-Film-coated-tablet-EE-MPD)</a></p><p><b>containedItemQuantity</b>: 21 tablet<span style=\"background: LightGoldenRodYellow\"> (Details: https://spor.ema.europa.eu/v1/lists/200000000014 code 200000002152 = 'Tablet')</span></p><p><b>description</b>: Alumiiniumfooliumiga kaetud PVC/PVDC blistrid. Pakendi suurus: 1 x 21 õhukese polümeerikattega tabletti</p><h3>MarketingStatuses</h3><table class=\"grid\"><tr><td>-</td><td><b>Country</b></td><td><b>Status</b></td></tr><tr><td>*</td><td>Republic of Estonia <span style=\"background: LightGoldenRodYellow; margin: 4px; border: 1px solid khaki\"> (<a href=\"CodeSystem-country-ema-cs.html\">Country EMA</a>#100000000388)</span></td><td>Marketed <span style=\"background: LightGoldenRodYellow; margin: 4px; border: 1px solid khaki\"> (100000072052#100000072083)</span></td></tr></table><blockquote><p><b>package</b></p><p><b>type</b>: Box <span style=\"background: LightGoldenRodYellow; margin: 4px; border: 1px solid khaki\"> (100000073346#100000073498)</span></p><p><b>quantity</b>: 1</p><blockquote><p><b>package</b></p><p><b>type</b>: Box <span style=\"background: LightGoldenRodYellow; margin: 4px; border: 1px solid khaki\"> (100000073346#100000073498)</span></p><p><b>quantity</b>: 1</p><p><b>material</b>: Cardboard <span style=\"background: LightGoldenRodYellow; margin: 4px; border: 1px solid khaki\"> (<a href=\"CodeSystem-material-ema-cs.html\">Material EMA</a>#200000003529)</span></p></blockquote></blockquote></div>"
        },
        "identifier": [
          {
            "system": "http://ema.europa.eu/example/pcid",
            "value": "EE-100005719-2603-1331019"
          }
        ],
        "packageFor": [
          {
            "reference": "MedicinalProductDefinition/Jangee-0.02mg-3mg-Film-coated-tablet-EE-MPD"
          }
        ],
        "containedItemQuantity": [
          {
            "value": 21,
            "unit": "tablet",
            "system": "https://spor.ema.europa.eu/v1/lists/200000000014",
            "code": "200000002152"
          }
        ],
        "description": "Alumiiniumfooliumiga kaetud PVC/PVDC blistrid. Pakendi suurus: 1 x 21 õhukese polümeerikattega tabletti",
        "marketingStatus": [
          {
            "country": {
              "coding": [
                {
                  "system": "https://spor.ema.europa.eu/v1/lists/100000000002",
                  "code": "100000000388",
                  "display": "Republic of Estonia"
                }
              ]
            },
            "status": {
              "coding": [
                {
                  "system": "https://spor.ema.europa.eu/v1/lists/100000072052",
                  "code": "100000072083",
                  "display": "Marketed"
                }
              ]
            }
          }
        ],
        "package": {
          "type": {
            "coding": [
              {
                "system": "https://spor.ema.europa.eu/v1/lists/100000073346",
                "code": "100000073498",
                "display": "Box"
              }
            ]
          },
          "quantity": 1,
          "package": [
            {
              "type": {
                "coding": [
                  {
                    "system": "https://spor.ema.europa.eu/v1/lists/100000073346",
                    "code": "100000073498",
                    "display": "Box"
                  }
                ]
              },
              "quantity": 1,
              "material": [
                {
                  "coding": [
                    {
                      "system": "https://spor.ema.europa.eu/v1/lists/200000003199",
                      "code": "200000003529",
                      "display": "Cardboard"
                    }
                  ]
                }
              ],
              "package": [
                {
                  "type": {
                    "coding": [
                      {
                        "system": "https://spor.ema.europa.eu/v1/lists/100000073346",
                        "code": "100000073496",
                        "display": "Blister"
                      }
                    ]
                  },
                  "quantity": 1,
                  "material": [
                    {
                      "coding": [
                        {
                          "system": "https://spor.ema.europa.eu/v1/lists/200000003199",
                          "code": "200000003200",
                          "display": "Aluminium"
                        }
                      ]
                    },
                    {
                      "coding": [
                        {
                          "system": "https://spor.ema.europa.eu/v1/lists/200000003199",
                          "code": "200000003222",
                          "display": "PolyVinyl Chloride"
                        }
                      ]
                    },
                    {
                      "coding": [
                        {
                          "system": "https://spor.ema.europa.eu/v1/lists/200000003199",
                          "code": "200000003225",
                          "display": "PolyVinylidene Chloride"
                        }
                      ]
                    }
                  ],
                  "containedItem": [
                    {
                      "item": {
                        "reference": {
                          "reference": "ManufacturedItemDefinition/Jangee-0.02mg-3mg-Film-coated-tablet-EE-MID"
                        }
                      },
                      "amount": {
                        "value": 21,
                        "unit": "tablet",
                        "system": "https://spor.ema.europa.eu/v1/lists/200000000014",
                        "code": "200000002152"
                      }
                    }
                  ]
                }
              ]
            }
          ]
        }
      },
      "request": {
        "method": "POST",
        "url": "PackagedProductDefinition/Jangee-0.02mg-3mg-Film-coated-tablet-EE-PPD"
      }
    },
    {
      "fullUrl": "https://hl7-eu.github.io/unicom-ig/branches/mpd-r4b/ManufacturedItemDefinition/Jangee-0.02mg-3mg-Film-coated-tablet-EE-MID",
      "resource": {
        "resourceType": "ManufacturedItemDefinition",
        "id": "Jangee-0.02mg-3mg-Film-coated-tablet-EE-MID",
        "meta": {
          "profile": [
            "http://unicom-project.eu/fhir/StructureDefinition/PPLManufacturedItemDefinition"
          ]
        },
        "text": {
          "status": "generated",
          "div": "<div xmlns=\"http://www.w3.org/1999/xhtml\"><p><b>Generated Narrative: ManufacturedItemDefinition</b><a name=\"Jangee-0.02mg-3mg-Film-coated-tablet-EE-MID\"> </a></p><div style=\"display: inline-block; background-color: #d9e0e7; padding: 6px; margin: 4px; border: 1px solid #8da1b4; border-radius: 5px; line-height: 60%\"><p style=\"margin-bottom: 0px\">Resource ManufacturedItemDefinition &quot;Jangee-0.02mg-3mg-Film-coated-tablet-EE-MID&quot; </p><p style=\"margin-bottom: 0px\">Profile: <a href=\"StructureDefinition-PPLManufacturedItemDefinition.html\">PPL Manufactured Item profile</a></p></div><p><b>status</b>: active</p><p><b>manufacturedDoseForm</b>: Film-coated tablet <span style=\"background: LightGoldenRodYellow; margin: 4px; border: 1px solid khaki\"> (<a href=\"CodeSystem-pharmaceutical-dose-form-ema-cs.html\">Pharmaceutical Dose Form EMA</a>#100000073665)</span></p><p><b>unitOfPresentation</b>: tablet <span style=\"background: LightGoldenRodYellow; margin: 4px; border: 1px solid khaki\"> (<a href=\"CodeSystem-unit-of-presentation-ema-cs.html\">Unit of Presentation EMA</a>#200000002152)</span></p></div>"
        },
        "status": "active",
        "manufacturedDoseForm": {
          "coding": [
            {
              "system": "https://spor.ema.europa.eu/v1/lists/200000000004",
              "code": "100000073665",
              "display": "Film-coated tablet"
            }
          ]
        },
        "unitOfPresentation": {
          "coding": [
            {
              "system": "https://spor.ema.europa.eu/v1/lists/200000000014",
              "code": "200000002152",
              "display": "tablet"
            }
          ]
        }
      },
      "request": {
        "method": "POST",
        "url": "ManufacturedItemDefinition/Jangee-0.02mg-3mg-Film-coated-tablet-EE-MID"
      }
    },
    {
      "fullUrl": "https://hl7-eu.github.io/unicom-ig/branches/mpd-r4b/Jangee-0.02mg-3mg-Film-coated-tablet-EE-I-01",
      "resource": {
        "resourceType": "Ingredient",
        "id": "Jangee-0.02mg-3mg-Film-coated-tablet-EE-I-01",
        "meta": {
          "profile": [
            "http://unicom-project.eu/fhir/StructureDefinition/PPLIngredient"
          ]
        },
        "text": {
          "status": "generated",
          "div": "<div xmlns=\"http://www.w3.org/1999/xhtml\"><p><b>Generated Narrative: Ingredient</b><a name=\"Jangee-0.02mg-3mg-Film-coated-tablet-EE-I-01\"> </a></p><div style=\"display: inline-block; background-color: #d9e0e7; padding: 6px; margin: 4px; border: 1px solid #8da1b4; border-radius: 5px; line-height: 60%\"><p style=\"margin-bottom: 0px\">Resource Ingredient &quot;Jangee-0.02mg-3mg-Film-coated-tablet-EE-I-01&quot; </p><p style=\"margin-bottom: 0px\">Profile: <a href=\"StructureDefinition-PPLIngredient.html\">PPL Ingredient profile</a></p></div><p><b>status</b>: active</p><p><b>for</b>: </p><ul><li><a href=\"#MedicinalProductDefinition_Jangee-0.02mg-3mg-Film-coated-tablet-EE-MPD\">See above (MedicinalProductDefinition/Jangee-0.02mg-3mg-Film-coated-tablet-EE-MPD)</a></li><li><a href=\"#ManufacturedItemDefinition_Jangee-0.02mg-3mg-Film-coated-tablet-EE-MID\">See above (ManufacturedItemDefinition/Jangee-0.02mg-3mg-Film-coated-tablet-EE-MID)</a></li><li><a href=\"#AdministrableProductDefinition_Jangee-0.02mg-3mg-Film-coated-tablet-EE-APD\">See above (AdministrableProductDefinition/Jangee-0.02mg-3mg-Film-coated-tablet-EE-APD)</a></li></ul><p><b>role</b>: Active <span style=\"background: LightGoldenRodYellow; margin: 4px; border: 1px solid khaki\"> (100000072050#100000072072)</span></p><blockquote><p><b>substance</b></p><h3>Codes</h3><table class=\"grid\"><tr><td>-</td><td><b>Concept</b></td></tr><tr><td>*</td><td>Ethinylestradiol <span style=\"background: LightGoldenRodYellow; margin: 4px; border: 1px solid khaki\"> (SubstanceDefinition#100000091531)</span></td></tr></table><blockquote><p><b>strength</b></p><p><b>presentation</b>: 0.02 milligram(s)<span style=\"background: LightGoldenRodYellow\"> (Details: https://spor.ema.europa.eu/v1/lists/100000110633 code 100000110655 = 'milligram(s)')</span>/1 tablet<span style=\"background: LightGoldenRodYellow\"> (Details: https://spor.ema.europa.eu/v1/lists/200000000014 code 200000002152 = 'Tablet')</span></p><blockquote><p><b>referenceStrength</b></p><h3>Substances</h3><table class=\"grid\"><tr><td>-</td><td><b>Concept</b></td></tr><tr><td>*</td><td>Ethinylestradiol <span style=\"background: LightGoldenRodYellow; margin: 4px; border: 1px solid khaki\"> (SubstanceDefinition#100000091721)</span></td></tr></table><p><b>strength</b>: 0.03 milligram(s)<span style=\"background: LightGoldenRodYellow\"> (Details: https://spor.ema.europa.eu/v1/lists/100000110633 code 100000110655 = 'milligram(s)')</span>/1 tablet<span style=\"background: LightGoldenRodYellow\"> (Details: https://spor.ema.europa.eu/v1/lists/200000000014 code 200000002152 = 'Tablet')</span></p></blockquote></blockquote></blockquote></div>"
        },
        "status": "active",
        "for": [
          {
            "reference": "MedicinalProductDefinition/Jangee-0.02mg-3mg-Film-coated-tablet-EE-MPD"
          },
          {
            "reference": "ManufacturedItemDefinition/Jangee-0.02mg-3mg-Film-coated-tablet-EE-MID"
          },
          {
            "reference": "AdministrableProductDefinition/Jangee-0.02mg-3mg-Film-coated-tablet-EE-APD"
          }
        ],
        "role": {
          "coding": [
            {
              "system": "https://spor.ema.europa.eu/v1/lists/100000072050",
              "code": "100000072072",
              "display": "Active"
            }
          ]
        },
        "substance": {
          "code": {
            "concept": {
              "coding": [
                {
                  "system": "https://spor.ema.europa.eu/v2/SubstanceDefinition",
                  "code": "100000091531",
                  "display": "Ethinylestradiol"
                }
              ]
            }
          },
          "strength": [
            {
              "presentationRatio": {
                "numerator": {
                  "value": 0.02,
                  "unit": "milligram(s)",
                  "system": "https://spor.ema.europa.eu/v1/lists/100000110633",
                  "code": "100000110655"
                },
                "denominator": {
                  "value": 1,
                  "unit": "tablet",
                  "system": "https://spor.ema.europa.eu/v1/lists/200000000014",
                  "code": "200000002152"
                }
              },
              "referenceStrength": [
                {
                  "substance": {
                    "concept": {
                      "coding": [
                        {
                          "system": "https://spor.ema.europa.eu/v2/SubstanceDefinition",
                          "code": "100000091721",
                          "display": "Ethinylestradiol"
                        }
                      ]
                    }
                  },
                  "strengthRatio": {
                    "numerator": {
                      "value": 0.03,
                      "unit": "milligram(s)",
                      "system": "https://spor.ema.europa.eu/v1/lists/100000110633",
                      "code": "100000110655"
                    },
                    "denominator": {
                      "value": 1,
                      "unit": "tablet",
                      "system": "https://spor.ema.europa.eu/v1/lists/200000000014",
                      "code": "200000002152"
                    }
                  }
                }
              ]
            }
          ]
        }
      },
      "request": {
        "method": "POST",
        "url": "Ingredient/Jangee-0.02mg-3mg-Film-coated-tablet-EE-I-01"
      }
    },
    {
      "fullUrl": "https://hl7-eu.github.io/unicom-ig/branches/mpd-r4b/Jangee-0.02mg-3mg-Film-coated-tablet-EE-I-02",
      "resource": {
        "resourceType": "Ingredient",
        "id": "Jangee-0.02mg-3mg-Film-coated-tablet-EE-I-02",
        "meta": {
          "profile": [
            "http://unicom-project.eu/fhir/StructureDefinition/PPLIngredient"
          ]
        },
        "text": {
          "status": "generated",
          "div": "<div xmlns=\"http://www.w3.org/1999/xhtml\"><p><b>Generated Narrative: Ingredient</b><a name=\"Jangee-0.02mg-3mg-Film-coated-tablet-EE-I-02\"> </a></p><div style=\"display: inline-block; background-color: #d9e0e7; padding: 6px; margin: 4px; border: 1px solid #8da1b4; border-radius: 5px; line-height: 60%\"><p style=\"margin-bottom: 0px\">Resource Ingredient &quot;Jangee-0.02mg-3mg-Film-coated-tablet-EE-I-02&quot; </p><p style=\"margin-bottom: 0px\">Profile: <a href=\"StructureDefinition-PPLIngredient.html\">PPL Ingredient profile</a></p></div><p><b>status</b>: active</p><p><b>for</b>: </p><ul><li><a href=\"#MedicinalProductDefinition_Jangee-0.02mg-3mg-Film-coated-tablet-EE-MPD\">See above (MedicinalProductDefinition/Jangee-0.02mg-3mg-Film-coated-tablet-EE-MPD)</a></li><li><a href=\"#ManufacturedItemDefinition_Jangee-0.02mg-3mg-Film-coated-tablet-EE-MID\">See above (ManufacturedItemDefinition/Jangee-0.02mg-3mg-Film-coated-tablet-EE-MID)</a></li><li><a href=\"#AdministrableProductDefinition_Jangee-0.02mg-3mg-Film-coated-tablet-EE-APD\">See above (AdministrableProductDefinition/Jangee-0.02mg-3mg-Film-coated-tablet-EE-APD)</a></li></ul><p><b>role</b>: Active <span style=\"background: LightGoldenRodYellow; margin: 4px; border: 1px solid khaki\"> (100000072050#100000072072)</span></p><blockquote><p><b>substance</b></p><h3>Codes</h3><table class=\"grid\"><tr><td>-</td><td><b>Concept</b></td></tr><tr><td>*</td><td>drospirenone <span style=\"background: LightGoldenRodYellow; margin: 4px; border: 1px solid khaki\"> (SubstanceDefinition#100000092375)</span></td></tr></table><blockquote><p><b>strength</b></p><p><b>presentation</b>: 3 milligram(s)<span style=\"background: LightGoldenRodYellow\"> (Details: https://spor.ema.europa.eu/v1/lists/100000110633 code 100000110655 = 'milligram(s)')</span>/1 tablet<span style=\"background: LightGoldenRodYellow\"> (Details: https://spor.ema.europa.eu/v1/lists/200000000014 code 200000002152 = 'Tablet')</span></p><blockquote><p><b>referenceStrength</b></p><h3>Substances</h3><table class=\"grid\"><tr><td>-</td><td><b>Concept</b></td></tr><tr><td>*</td><td>drospirenone <span style=\"background: LightGoldenRodYellow; margin: 4px; border: 1px solid khaki\"> (SubstanceDefinition#100000092375)</span></td></tr></table><p><b>strength</b>: 3 milligram(s)<span style=\"background: LightGoldenRodYellow\"> (Details: https://spor.ema.europa.eu/v1/lists/100000110633 code 100000110655 = 'milligram(s)')</span>/1 tablet<span style=\"background: LightGoldenRodYellow\"> (Details: https://spor.ema.europa.eu/v1/lists/200000000014 code 200000002152 = 'Tablet')</span></p></blockquote></blockquote></blockquote></div>"
        },
        "status": "active",
        "for": [
          {
            "reference": "MedicinalProductDefinition/Jangee-0.02mg-3mg-Film-coated-tablet-EE-MPD"
          },
          {
            "reference": "ManufacturedItemDefinition/Jangee-0.02mg-3mg-Film-coated-tablet-EE-MID"
          },
          {
            "reference": "AdministrableProductDefinition/Jangee-0.02mg-3mg-Film-coated-tablet-EE-APD"
          }
        ],
        "role": {
          "coding": [
            {
              "system": "https://spor.ema.europa.eu/v1/lists/100000072050",
              "code": "100000072072",
              "display": "Active"
            }
          ]
        },
        "substance": {
          "code": {
            "concept": {
              "coding": [
                {
                  "system": "https://spor.ema.europa.eu/v2/SubstanceDefinition",
                  "code": "100000092375",
                  "display": "drospirenone"
                }
              ]
            }
          },
          "strength": [
            {
              "presentationRatio": {
                "numerator": {
                  "value": 3,
                  "unit": "milligram(s)",
                  "system": "https://spor.ema.europa.eu/v1/lists/100000110633",
                  "code": "100000110655"
                },
                "denominator": {
                  "value": 1,
                  "unit": "tablet",
                  "system": "https://spor.ema.europa.eu/v1/lists/200000000014",
                  "code": "200000002152"
                }
              },
              "referenceStrength": [
                {
                  "substance": {
                    "concept": {
                      "coding": [
                        {
                          "system": "https://spor.ema.europa.eu/v2/SubstanceDefinition",
                          "code": "100000092375",
                          "display": "drospirenone"
                        }
                      ]
                    }
                  },
                  "strengthRatio": {
                    "numerator": {
                      "value": 3,
                      "unit": "milligram(s)",
                      "system": "https://spor.ema.europa.eu/v1/lists/100000110633",
                      "code": "100000110655"
                    },
                    "denominator": {
                      "value": 1,
                      "unit": "tablet",
                      "system": "https://spor.ema.europa.eu/v1/lists/200000000014",
                      "code": "200000002152"
                    }
                  }
                }
              ]
            }
          ]
        }
      },
      "request": {
        "method": "POST",
        "url": "Ingredient/Jangee-0.02mg-3mg-Film-coated-tablet-EE-I-02"
      }
    }
  ]
}