<?xml version="1.0" encoding="UTF-8"?>

<Bundle xmlns="http://hl7.org/fhir">
  <id value="AT-Curocef-1500-Powder"/>
  <type value="collection"/>
  <entry>
    <fullUrl value="https://hl7-eu.github.io/unicom-ig/MedicinalProductDefinition-Curocef-1500mg-Powder-AT-MPD"/>
    <resource>
      <MedicinalProductDefinition>
        <id value="Curocef-1500mg-Powder-AT-MPD"/>
        <meta>
          <profile value="http://unicom-project.eu/fhir/StructureDefinition/PPLMedicinalProductDefinition"/>
        </meta>
        <text>
          <status value="generated"/><div xmlns="http://www.w3.org/1999/xhtml"><a name="MedicinalProductDefinition_Curocef-1500mg-Powder-AT-MPD"> </a><p><b>Generated Narrative: MedicinalProductDefinition</b><a name="Curocef-1500mg-Powder-AT-MPD"> </a><a name="hcCurocef-1500mg-Powder-AT-MPD"> </a></p><div style="display: inline-block; background-color: #d9e0e7; padding: 6px; margin: 4px; border: 1px solid #8da1b4; border-radius: 5px; line-height: 60%"><p style="margin-bottom: 0px">Resource MedicinalProductDefinition &quot;Curocef-1500mg-Powder-AT-MPD&quot; </p><p style="margin-bottom: 0px">Profile: <a href="StructureDefinition-PPLMedicinalProductDefinition.html">PPL Medicinal Product profile</a></p></div><p><b>identifier</b>: <code>http://ema.europa.eu/fhir/eurdId</code>/2215</p><p><b>domain</b>: Human use <span style="background: LightGoldenRodYellow; margin: 4px; border: 1px solid khaki"> (<a href="CodeSystem-domain-ema-cs.html">Domain EMA</a>#100000000012)</span></p><p><b>status</b>: Current <span style="background: LightGoldenRodYellow; margin: 4px; border: 1px solid khaki"> (<a href="CodeSystem-recordStatus-ema-cs.html">Record Status EMA SPOR</a>#200000005004)</span></p><p><b>combinedPharmaceuticalDoseForm</b>: Powder for solution for injection/infusion <span style="background: LightGoldenRodYellow; margin: 4px; border: 1px solid khaki"> (<a href="CodeSystem-pharmaceutical-dose-form-ema-cs.html">Pharmaceutical Dose Form EMA</a>#100000116186)</span></p><p><b>indication</b>: Cefuroxim Stragen är avsett för behandling av nedanstående infektioner hos vuxna och barn, även  nyfödda (från födelsen). • Samhällsförvärvad pneumoni • Akut exacerbation av kronisk bronkit. • Komplicerade urinvägsinfektioner, även pyelonefrit. • Mjukdelsinfektioner: cellulit, erysipelas och sårinfektioner. • Intraabdominella infektioner. • Profylax mot infektion inför gastrointestinal (även esofageal), ortopedisk, kardiovaskulär och  gynekologisk operation (även kejsarsnitt). Vid behandling och förebyggande av infektioner då det är mycket troligt att anaeroba organismer  påträffas ska cefuroxim administreras tillsammans med ett lämpligt antianaerobt antibiotikum. Hänsyn ska tas till officiella riktlinjer om lämplig användning av antibakteriella medel. </p><p><b>legalStatusOfSupply</b>: Medicinal product on medical prescription for non-renewable delivery <span style="background: LightGoldenRodYellow; margin: 4px; border: 1px solid khaki"> (<a href="CodeSystem-legal-status-for-the-supply-ema-cs.html">Legal Status for the Supply EMA</a>#100000072079)</span></p><p><b>classification</b>: Cefuroxime <span style="background: LightGoldenRodYellow; margin: 4px; border: 1px solid khaki"> (<a href="CodeSystem-ATC-Human-EMA.html">ATC Human EMA</a>#100000096183)</span>, cefuroxime <span style="background: LightGoldenRodYellow; margin: 4px; border: 1px solid khaki"> (<a href="http://terminology.hl7.org/5.5.0/CodeSystem-v3-WC.html">WHO ATC</a>#J01DC02)</span></p><blockquote><p><b>name</b></p><p><b>productName</b>: Curocef 1500 mg Pulver zur Herstellung einer Injektions- oder Infusionslösung</p><blockquote><p><b>part</b></p><p><b>part</b>: Curocef</p><p><b>type</b>: Invented name part <span style="background: LightGoldenRodYellow; margin: 4px; border: 1px solid khaki"> (220000000000#220000000002)</span></p></blockquote><blockquote><p><b>part</b></p><p><b>part</b>: 1500 mg</p><p><b>type</b>: Strength part <span style="background: LightGoldenRodYellow; margin: 4px; border: 1px solid khaki"> (220000000000#220000000004)</span></p></blockquote><blockquote><p><b>part</b></p><p><b>part</b>: Pulver zur Herstellung einer Injektions- oder Infusionslösung</p><p><b>type</b>: Pharmaceutical dose form part <span style="background: LightGoldenRodYellow; margin: 4px; border: 1px solid khaki"> (220000000000#220000000005)</span></p></blockquote><h3>Usages</h3><table class="grid"><tr><td style="display: none">-</td><td><b>Country</b></td><td><b>Language</b></td></tr><tr><td style="display: none">*</td><td>Austria <span style="background: LightGoldenRodYellow; margin: 4px; border: 1px solid khaki"> (<a href="CodeSystem-country-ema-cs.html">Country EMA</a>#100000000330)</span></td><td>German <span style="background: LightGoldenRodYellow; margin: 4px; border: 1px solid khaki"> (<a href="http://terminology.hl7.org/5.5.0/CodeSystem-v3-ietf3066.html">Tags for the Identification of Languages</a>#de)</span></td></tr></table></blockquote></div>
        </text>
        <identifier>
          <system value="http://ema.europa.eu/fhir/eurdId"/>
          <value value="2215"/>
        </identifier>
        <domain>
          <coding>
            <system value="https://spor.ema.europa.eu/v1/lists/100000000004"/>
            <code value="100000000012"/>
            <display value="Human use"/>
          </coding>
        </domain>
        <status>
          <coding>
            <system value="https://spor.ema.europa.eu/v1/lists/200000005003"/>
            <code value="200000005004"/>
            <display value="Current"/>
          </coding>
        </status>
        <combinedPharmaceuticalDoseForm>
          <coding>
            <system value="https://spor.ema.europa.eu/v1/lists/200000000004"/>
            <code value="100000116186"/>
            <display value="Powder for solution for injection/infusion"/>
          </coding>
        </combinedPharmaceuticalDoseForm>
        <indication value="Cefuroxim Stragen är avsett för behandling av nedanstående infektioner hos vuxna och barn, även  nyfödda (från födelsen). • Samhällsförvärvad pneumoni • Akut exacerbation av kronisk bronkit. • Komplicerade urinvägsinfektioner, även pyelonefrit. • Mjukdelsinfektioner: cellulit, erysipelas och sårinfektioner. • Intraabdominella infektioner. • Profylax mot infektion inför gastrointestinal (även esofageal), ortopedisk, kardiovaskulär och  gynekologisk operation (även kejsarsnitt). Vid behandling och förebyggande av infektioner då det är mycket troligt att anaeroba organismer  påträffas ska cefuroxim administreras tillsammans med ett lämpligt antianaerobt antibiotikum. Hänsyn ska tas till officiella riktlinjer om lämplig användning av antibakteriella medel. "/>
        <legalStatusOfSupply>
          <coding>
            <system value="https://spor.ema.europa.eu/v1/lists/100000072051"/>
            <code value="100000072079"/>
            <display value="Medicinal product on medical prescription for non-renewable delivery"/>
          </coding>
        </legalStatusOfSupply>
        <classification>
          <coding>
            <system value="https://spor.ema.europa.eu/v1/lists/100000093533"/>
            <code value="100000096183"/>
            <display value="Cefuroxime"/>
          </coding>
        </classification>
        <classification>
          <coding>
            <system value="http://www.whocc.no/atc"/>
            <code value="J01DC02"/>
            <display value="cefuroxime"/>
          </coding>
        </classification>
        <name>
          <productName value="Curocef 1500 mg Pulver zur Herstellung einer Injektions- oder Infusionslösung"/>
          <part>
            <part value="Curocef"/>
            <type>
              <coding>
                <system value="https://spor.ema.europa.eu/v1/lists/220000000000"/>
                <code value="220000000002"/>
                <display value="Invented name part"/>
              </coding>
            </type>
          </part>
          <part>
            <part value="1500 mg"/>
            <type>
              <coding>
                <system value="https://spor.ema.europa.eu/v1/lists/220000000000"/>
                <code value="220000000004"/>
                <display value="Strength part"/>
              </coding>
            </type>
          </part>
          <part>
            <part value="Pulver zur Herstellung einer Injektions- oder Infusionslösung"/>
            <type>
              <coding>
                <system value="https://spor.ema.europa.eu/v1/lists/220000000000"/>
                <code value="220000000005"/>
                <display value="Pharmaceutical dose form part"/>
              </coding>
            </type>
          </part>
          <usage>
            <country>
              <coding>
                <system value="https://spor.ema.europa.eu/v1/lists/100000000002"/>
                <code value="100000000330"/>
                <display value="Austria"/>
              </coding>
            </country>
            <language>
              <coding>
                <system value="urn:ietf:bcp:47"/>
                <code value="de"/>
                <display value="German"/>
              </coding>
            </language>
          </usage>
        </name>
      </MedicinalProductDefinition>
    </resource>
  </entry>
  <entry>
    <fullUrl value="https://hl7-eu.github.io/unicom-ig/RegulatedAuthorization-Curocef-1500mg-Powder-AT-RA"/>
    <resource>
      <RegulatedAuthorization>
        <id value="Curocef-1500mg-Powder-AT-RA"/>
        <meta>
          <profile value="http://unicom-project.eu/fhir/StructureDefinition/PPLRegulatedAuthorization"/>
        </meta>
        <text>
          <status value="generated"/><div xmlns="http://www.w3.org/1999/xhtml"><a name="RegulatedAuthorization_Curocef-1500mg-Powder-AT-RA"> </a><p><b>Generated Narrative: RegulatedAuthorization</b><a name="Curocef-1500mg-Powder-AT-RA"> </a><a name="hcCurocef-1500mg-Powder-AT-RA"> </a></p><div style="display: inline-block; background-color: #d9e0e7; padding: 6px; margin: 4px; border: 1px solid #8da1b4; border-radius: 5px; line-height: 60%"><p style="margin-bottom: 0px">Resource RegulatedAuthorization &quot;Curocef-1500mg-Powder-AT-RA&quot; </p><p style="margin-bottom: 0px">Profile: <a href="StructureDefinition-PPLRegulatedAuthorization.html">PPL Marketing Authorisation profile</a></p></div><p><b>identifier</b>: 16569</p><p><b>subject</b>: See on this page: MedicinalProductDefinition/Curocef-1500mg-Powder-AT-MPD</p><p><b>type</b>: Marketing Authorisation <span style="background: LightGoldenRodYellow; margin: 4px; border: 1px solid khaki"> (220000000060#220000000061)</span></p><p><b>region</b>: Austria <span style="background: LightGoldenRodYellow; margin: 4px; border: 1px solid khaki"> (<a href="CodeSystem-country-ema-cs.html">Country EMA</a>#100000000330)</span></p><p><b>status</b>: Valid <span style="background: LightGoldenRodYellow; margin: 4px; border: 1px solid khaki"> (<a href="CodeSystem-regulatoryStatus-ema-cs.html">Regulatory Entitlement Status EMA SPOR</a>#100000072099)</span></p><p><b>statusDate</b>: 2020-12-12</p><p><b>holder</b>: See on this page: Organization/LOC-100000450</p></div>
        </text>
        <identifier>
          <value value="16569"/>
        </identifier>
        <subject>
          <reference value="MedicinalProductDefinition/Curocef-1500mg-Powder-AT-MPD"/>
        </subject>
        <type>
          <coding>
            <system value="https://spor.ema.europa.eu/v1/lists/220000000060"/>
            <code value="220000000061"/>
            <display value="Marketing Authorisation"/>
          </coding>
        </type>
        <region>
          <coding>
            <system value="https://spor.ema.europa.eu/v1/lists/100000000002"/>
            <code value="100000000330"/>
            <display value="Austria"/>
          </coding>
        </region>
        <status>
          <coding>
            <system value="https://spor.ema.europa.eu/v1/lists/100000072049"/>
            <code value="100000072099"/>
            <display value="Valid"/>
          </coding>
        </status>
        <statusDate value="2020-12-12"/>
        <holder>
          <reference value="Organization/LOC-100000450"/>
        </holder>
      </RegulatedAuthorization>
    </resource>
  </entry>
  <entry>
    <fullUrl value="https://hl7-eu.github.io/unicom-ig/Organization-LOC-100000450"/>
    <resource>
      <Organization>
        <id value="LOC-100000450"/>
        <meta>
          <profile value="http://unicom-project.eu/fhir/StructureDefinition/PPLOrganization"/>
        </meta>
        <text>
          <status value="generated"/><div xmlns="http://www.w3.org/1999/xhtml"><a name="Organization_LOC-100000450"> </a><p><b>Generated Narrative: Organization</b><a name="LOC-100000450"> </a><a name="hcLOC-100000450"> </a></p><div style="display: inline-block; background-color: #d9e0e7; padding: 6px; margin: 4px; border: 1px solid #8da1b4; border-radius: 5px; line-height: 60%"><p style="margin-bottom: 0px">Resource Organization &quot;LOC-100000450&quot; </p><p style="margin-bottom: 0px">Profile: <a href="StructureDefinition-PPLOrganization.html">PPL Organization</a></p></div><p><b>identifier</b>: <code>https://spor.ema.europa.eu/v1/locations</code>/ORG-100000546</p><p><b>name</b>: Sandoz GmbH</p></div>
        </text>
        <identifier>
          <system value="https://spor.ema.europa.eu/v1/locations"/>
          <value value="ORG-100000546"/>
        </identifier>
        <name value="Sandoz GmbH"/>
      </Organization>
    </resource>
  </entry>
  <entry>
    <fullUrl value="https://hl7-eu.github.io/unicom-ig/AdministrableProductDefinition-Curocef-1500mg-Powder-AT-APD"/>
    <resource>
      <AdministrableProductDefinition>
        <id value="Curocef-1500mg-Powder-AT-APD"/>
        <meta>
          <profile value="http://unicom-project.eu/fhir/StructureDefinition/PPLAdministrableProductDefinition"/>
        </meta>
        <text>
          <status value="generated"/><div xmlns="http://www.w3.org/1999/xhtml"><a name="AdministrableProductDefinition_Curocef-1500mg-Powder-AT-APD"> </a><p><b>Generated Narrative: AdministrableProductDefinition</b><a name="Curocef-1500mg-Powder-AT-APD"> </a><a name="hcCurocef-1500mg-Powder-AT-APD"> </a></p><div style="display: inline-block; background-color: #d9e0e7; padding: 6px; margin: 4px; border: 1px solid #8da1b4; border-radius: 5px; line-height: 60%"><p style="margin-bottom: 0px">Resource AdministrableProductDefinition &quot;Curocef-1500mg-Powder-AT-APD&quot; </p><p style="margin-bottom: 0px">Profile: <a href="StructureDefinition-PPLAdministrableProductDefinition.html">PPL Administrable Product profile</a></p></div><p><b>status</b>: active</p><p><b>formOf</b>: See on this page: MedicinalProductDefinition/Curocef-1500mg-Powder-AT-MPD</p><p><b>administrableDoseForm</b>: Solution for injection/infusion <span style="background: LightGoldenRodYellow; margin: 4px; border: 1px solid khaki"> (<a href="CodeSystem-pharmaceutical-dose-form-ema-cs.html">Pharmaceutical Dose Form EMA</a>#100000074038)</span></p><p><b>unitOfPresentation</b>: Ampoule <span style="background: LightGoldenRodYellow; margin: 4px; border: 1px solid khaki"> (<a href="CodeSystem-unit-of-presentation-ema-cs.html">Unit of Presentation EMA</a>#200000002164)</span></p><p><b>producedFrom</b>: See on this page: ManufacturedItemDefinition/Curocef-1500mg-Powder-AT-MID</p><h3>RouteOfAdministrations</h3><table class="grid"><tr><td style="display: none">-</td><td><b>Code</b></td></tr><tr><td style="display: none">*</td><td>Intramuscular use <span style="background: LightGoldenRodYellow; margin: 4px; border: 1px solid khaki"> (<a href="CodeSystem-routes-and-methods-of-administration-ema-cs.html">Routes and Methods of Administration EMA</a>#100000073600; <a href="CodeSystem-routes-and-methods-of-administration-ema-cs.html">Routes and Methods of Administration EMA</a>#100000073611 &quot;Intravenous use&quot;)</span></td></tr></table></div>
        </text>
        <status value="active"/>
        <formOf>
          <reference value="MedicinalProductDefinition/Curocef-1500mg-Powder-AT-MPD"/>
        </formOf>
        <administrableDoseForm>
          <coding>
            <system value="https://spor.ema.europa.eu/v1/lists/200000000004"/>
            <code value="100000074038"/>
            <display value="Solution for injection/infusion"/>
          </coding>
        </administrableDoseForm>
        <unitOfPresentation>
          <coding>
            <system value="https://spor.ema.europa.eu/v1/lists/200000000014"/>
            <code value="200000002164"/>
            <display value="Ampoule"/>
          </coding>
        </unitOfPresentation>
        <producedFrom>
          <reference value="ManufacturedItemDefinition/Curocef-1500mg-Powder-AT-MID"/>
        </producedFrom>
        <routeOfAdministration>
          <code>
            <coding>
              <system value="https://spor.ema.europa.eu/v1/lists/100000073345"/>
              <code value="100000073600"/>
              <display value="Intramuscular use"/>
            </coding>
            <coding>
              <system value="https://spor.ema.europa.eu/v1/lists/100000073345"/>
              <code value="100000073611"/>
              <display value="Intravenous use"/>
            </coding>
          </code>
        </routeOfAdministration>
      </AdministrableProductDefinition>
    </resource>
  </entry>
  <entry>
    <fullUrl value="https://hl7-eu.github.io/unicom-ig/PackagedProductDefinition-Curocef-1500mg-Powder-AT-PPD-128827002"/>
    <resource>
      <PackagedProductDefinition>
        <id value="Curocef-1500mg-Powder-AT-PPD-128827002"/>
        <meta>
          <profile value="http://unicom-project.eu/fhir/StructureDefinition/PPLPackagedProductDefinition"/>
        </meta>
        <text>
          <status value="generated"/><div xmlns="http://www.w3.org/1999/xhtml"><a name="PackagedProductDefinition_Curocef-1500mg-Powder-AT-PPD-128827002"> </a><p><b>Generated Narrative: PackagedProductDefinition</b><a name="Curocef-1500mg-Powder-AT-PPD-128827002"> </a><a name="hcCurocef-1500mg-Powder-AT-PPD-128827002"> </a></p><div style="display: inline-block; background-color: #d9e0e7; padding: 6px; margin: 4px; border: 1px solid #8da1b4; border-radius: 5px; line-height: 60%"><p style="margin-bottom: 0px">Resource PackagedProductDefinition &quot;Curocef-1500mg-Powder-AT-PPD-128827002&quot; </p><p style="margin-bottom: 0px">Profile: <a href="StructureDefinition-PPLPackagedProductDefinition.html">PPL Packaged Product profile</a></p></div><p><b>identifier</b>: <code>http://ema.europa.eu/example/pcid</code>/AT-100000450-16569-128827002</p><p><b>packageFor</b>: See on this page: MedicinalProductDefinition/Curocef-1500mg-Powder-AT-MPD</p><p><b>containedItemQuantity</b>: 5 Ampoule<span style="background: LightGoldenRodYellow"> (Details: https://spor.ema.europa.eu/v1/lists/200000000014 code 200000002164 = 'Ampoule')</span></p><p><b>description</b>: Farblose Glasampulle mit einem Brombutylkautschuk-Stopfen und Aluminium-Verschluss mit aufklappbarem Kunststoffdeckel, die 1500 mg Cefuroxim (als Cefuroxim-Natrium) Pulver enthält</p><h3>MarketingStatuses</h3><table class="grid"><tr><td style="display: none">-</td><td><b>Country</b></td><td><b>Status</b></td><td><b>DateRange</b></td></tr><tr><td style="display: none">*</td><td>Austria <span style="background: LightGoldenRodYellow; margin: 4px; border: 1px solid khaki"> (<a href="CodeSystem-country-ema-cs.html">Country EMA</a>#100000000330)</span></td><td>Marketed <span style="background: LightGoldenRodYellow; margin: 4px; border: 1px solid khaki"> (<a href="CodeSystem-Marketing-Status-ema-cs.html">Marketing Status EMA</a>#100000072083)</span></td><td>1979-09-13 --&gt; (ongoing)</td></tr></table><blockquote><p><b>packaging</b></p><p><b>type</b>: Box <span style="background: LightGoldenRodYellow; margin: 4px; border: 1px solid khaki"> (<a href="CodeSystem-packaging-ema-cs.html">Packaging EMA SPOR</a>#100000073498)</span></p><p><b>quantity</b>: 1</p><p><b>material</b>: Cardboard <span style="background: LightGoldenRodYellow; margin: 4px; border: 1px solid khaki"> (<a href="CodeSystem-material-ema-cs.html">Material EMA</a>#200000003529)</span></p><blockquote><p><b>packaging</b></p><p><b>type</b>: Ampoule <span style="background: LightGoldenRodYellow; margin: 4px; border: 1px solid khaki"> (<a href="CodeSystem-packaging-ema-cs.html">Packaging EMA SPOR</a>#100000073490)</span></p><p><b>quantity</b>: 1</p><p><b>material</b>: Glass type I <span style="background: LightGoldenRodYellow; margin: 4px; border: 1px solid khaki"> (<a href="CodeSystem-material-ema-cs.html">Material EMA</a>#200000003204)</span></p><blockquote><p><b>containedItem</b></p></blockquote></blockquote></blockquote></div>
        </text>
        <identifier>
          <system value="http://ema.europa.eu/example/pcid"/>
          <value value="AT-100000450-16569-128827002"/>
        </identifier>
        <packageFor>
          <reference value="MedicinalProductDefinition/Curocef-1500mg-Powder-AT-MPD"/>
        </packageFor>
        <containedItemQuantity>
          <value value="5"/>
          <unit value="Ampoule"/>
          <system value="https://spor.ema.europa.eu/v1/lists/200000000014"/>
          <code value="200000002164"/>
        </containedItemQuantity>
        <description value="Farblose Glasampulle mit einem Brombutylkautschuk-Stopfen und Aluminium-Verschluss mit aufklappbarem Kunststoffdeckel, die 1500 mg Cefuroxim (als Cefuroxim-Natrium) Pulver enthält"/>
        <marketingStatus>
          <country>
            <coding>
              <system value="https://spor.ema.europa.eu/v1/lists/100000000002"/>
              <code value="100000000330"/>
              <display value="Austria"/>
            </coding>
          </country>
          <status>
            <coding>
              <system value="https://spor.ema.europa.eu/v1/lists/100000072052"/>
              <code value="100000072083"/>
              <display value="Marketed"/>
            </coding>
          </status>
          <dateRange>
            <start value="1979-09-13"/>
          </dateRange>
        </marketingStatus>
        <packaging>
          <type>
            <coding>
              <system value="https://spor.ema.europa.eu/v1/lists/100000073346"/>
              <code value="100000073498"/>
              <display value="Box"/>
            </coding>
          </type>
          <quantity value="1"/>
          <material>
            <coding>
              <system value="https://spor.ema.europa.eu/v1/lists/200000003199"/>
              <code value="200000003529"/>
              <display value="Cardboard"/>
            </coding>
          </material>
          <packaging>
            <type>
              <coding>
                <system value="https://spor.ema.europa.eu/v1/lists/100000073346"/>
                <code value="100000073490"/>
                <display value="Ampoule"/>
              </coding>
            </type>
            <quantity value="1"/>
            <material>
              <coding>
                <system value="https://spor.ema.europa.eu/v1/lists/200000003199"/>
                <code value="200000003204"/>
                <display value="Glass type I"/>
              </coding>
            </material>
            <containedItem>
              <item>
                <reference>
                  <reference value="ManufacturedItemDefinition/Curocef-1500mg-Powder-AT-MID"/>
                </reference>
              </item>
              <amount>
                <value value="5"/>
                <unit value="Ampoule"/>
                <system value="https://spor.ema.europa.eu/v1/lists/200000000014"/>
                <code value="200000002164"/>
              </amount>
            </containedItem>
          </packaging>
        </packaging>
      </PackagedProductDefinition>
    </resource>
  </entry>
  <entry>
    <fullUrl value="https://hl7-eu.github.io/unicom-ig/PackagedProductDefinition-Curocef-1500mg-Powder-AT-PPD-128827001"/>
    <resource>
      <PackagedProductDefinition>
        <id value="Curocef-1500mg-Powder-AT-PPD-128827001"/>
        <meta>
          <profile value="http://unicom-project.eu/fhir/StructureDefinition/PPLPackagedProductDefinition"/>
        </meta>
        <text>
          <status value="generated"/><div xmlns="http://www.w3.org/1999/xhtml"><a name="PackagedProductDefinition_Curocef-1500mg-Powder-AT-PPD-128827001"> </a><p><b>Generated Narrative: PackagedProductDefinition</b><a name="Curocef-1500mg-Powder-AT-PPD-128827001"> </a><a name="hcCurocef-1500mg-Powder-AT-PPD-128827001"> </a></p><div style="display: inline-block; background-color: #d9e0e7; padding: 6px; margin: 4px; border: 1px solid #8da1b4; border-radius: 5px; line-height: 60%"><p style="margin-bottom: 0px">Resource PackagedProductDefinition &quot;Curocef-1500mg-Powder-AT-PPD-128827001&quot; </p><p style="margin-bottom: 0px">Profile: <a href="StructureDefinition-PPLPackagedProductDefinition.html">PPL Packaged Product profile</a></p></div><p><b>identifier</b>: <code>http://ema.europa.eu/example/pcid</code>/AT-100000450-16569-128827001</p><p><b>packageFor</b>: See on this page: MedicinalProductDefinition/Curocef-1500mg-Powder-AT-MPD</p><p><b>containedItemQuantity</b>: 1 Ampoule<span style="background: LightGoldenRodYellow"> (Details: https://spor.ema.europa.eu/v1/lists/200000000014 code 200000002164 = 'Ampoule')</span></p><p><b>description</b>: Farblose Glasampulle mit einem Brombutylkautschuk-Stopfen und Aluminium-Verschluss mit aufklappbarem Kunststoffdeckel, die 1500 mg Cefuroxim (als Cefuroxim-Natrium) Pulver enthält</p><h3>MarketingStatuses</h3><table class="grid"><tr><td style="display: none">-</td><td><b>Country</b></td><td><b>Status</b></td><td><b>DateRange</b></td></tr><tr><td style="display: none">*</td><td>Austria <span style="background: LightGoldenRodYellow; margin: 4px; border: 1px solid khaki"> (<a href="CodeSystem-country-ema-cs.html">Country EMA</a>#100000000330)</span></td><td>Not Marketed <span style="background: LightGoldenRodYellow; margin: 4px; border: 1px solid khaki"> (<a href="CodeSystem-Marketing-Status-ema-cs.html">Marketing Status EMA</a>#100000072074)</span></td><td>1979-09-13 --&gt; (ongoing)</td></tr></table><blockquote><p><b>packaging</b></p><p><b>type</b>: Box <span style="background: LightGoldenRodYellow; margin: 4px; border: 1px solid khaki"> (<a href="CodeSystem-packaging-ema-cs.html">Packaging EMA SPOR</a>#100000073498)</span></p><p><b>quantity</b>: 1</p><p><b>material</b>: Cardboard <span style="background: LightGoldenRodYellow; margin: 4px; border: 1px solid khaki"> (<a href="CodeSystem-material-ema-cs.html">Material EMA</a>#200000003529)</span></p><blockquote><p><b>packaging</b></p><p><b>type</b>: Ampoule <span style="background: LightGoldenRodYellow; margin: 4px; border: 1px solid khaki"> (<a href="CodeSystem-packaging-ema-cs.html">Packaging EMA SPOR</a>#100000073490)</span></p><p><b>quantity</b>: 1</p><p><b>material</b>: Glass type I <span style="background: LightGoldenRodYellow; margin: 4px; border: 1px solid khaki"> (<a href="CodeSystem-material-ema-cs.html">Material EMA</a>#200000003204)</span></p><blockquote><p><b>containedItem</b></p></blockquote></blockquote></blockquote></div>
        </text>
        <identifier>
          <system value="http://ema.europa.eu/example/pcid"/>
          <value value="AT-100000450-16569-128827001"/>
        </identifier>
        <packageFor>
          <reference value="MedicinalProductDefinition/Curocef-1500mg-Powder-AT-MPD"/>
        </packageFor>
        <containedItemQuantity>
          <value value="1"/>
          <unit value="Ampoule"/>
          <system value="https://spor.ema.europa.eu/v1/lists/200000000014"/>
          <code value="200000002164"/>
        </containedItemQuantity>
        <description value="Farblose Glasampulle mit einem Brombutylkautschuk-Stopfen und Aluminium-Verschluss mit aufklappbarem Kunststoffdeckel, die 1500 mg Cefuroxim (als Cefuroxim-Natrium) Pulver enthält"/>
        <marketingStatus>
          <country>
            <coding>
              <system value="https://spor.ema.europa.eu/v1/lists/100000000002"/>
              <code value="100000000330"/>
              <display value="Austria"/>
            </coding>
          </country>
          <status>
            <coding>
              <system value="https://spor.ema.europa.eu/v1/lists/100000072052"/>
              <code value="100000072074"/>
              <display value="Not Marketed"/>
            </coding>
          </status>
          <dateRange>
            <start value="1979-09-13"/>
          </dateRange>
        </marketingStatus>
        <packaging>
          <type>
            <coding>
              <system value="https://spor.ema.europa.eu/v1/lists/100000073346"/>
              <code value="100000073498"/>
              <display value="Box"/>
            </coding>
          </type>
          <quantity value="1"/>
          <material>
            <coding>
              <system value="https://spor.ema.europa.eu/v1/lists/200000003199"/>
              <code value="200000003529"/>
              <display value="Cardboard"/>
            </coding>
          </material>
          <packaging>
            <type>
              <coding>
                <system value="https://spor.ema.europa.eu/v1/lists/100000073346"/>
                <code value="100000073490"/>
                <display value="Ampoule"/>
              </coding>
            </type>
            <quantity value="1"/>
            <material>
              <coding>
                <system value="https://spor.ema.europa.eu/v1/lists/200000003199"/>
                <code value="200000003204"/>
                <display value="Glass type I"/>
              </coding>
            </material>
            <containedItem>
              <item>
                <reference>
                  <reference value="ManufacturedItemDefinition/Curocef-1500mg-Powder-AT-MID"/>
                </reference>
              </item>
              <amount>
                <value value="1"/>
                <unit value="Ampoule"/>
                <system value="https://spor.ema.europa.eu/v1/lists/200000000014"/>
                <code value="200000002164"/>
              </amount>
            </containedItem>
          </packaging>
        </packaging>
      </PackagedProductDefinition>
    </resource>
  </entry>
  <entry>
    <fullUrl value="https://hl7-eu.github.io/unicom-ig/ManufacturedItemDefinition-Curocef-1500mg-Powder-AT-MID"/>
    <resource>
      <ManufacturedItemDefinition>
        <id value="Curocef-1500mg-Powder-AT-MID"/>
        <meta>
          <profile value="http://unicom-project.eu/fhir/StructureDefinition/PPLManufacturedItemDefinition"/>
        </meta>
        <text>
          <status value="generated"/><div xmlns="http://www.w3.org/1999/xhtml"><a name="ManufacturedItemDefinition_Curocef-1500mg-Powder-AT-MID"> </a><p><b>Generated Narrative: ManufacturedItemDefinition</b><a name="Curocef-1500mg-Powder-AT-MID"> </a><a name="hcCurocef-1500mg-Powder-AT-MID"> </a></p><div style="display: inline-block; background-color: #d9e0e7; padding: 6px; margin: 4px; border: 1px solid #8da1b4; border-radius: 5px; line-height: 60%"><p style="margin-bottom: 0px">Resource ManufacturedItemDefinition &quot;Curocef-1500mg-Powder-AT-MID&quot; </p><p style="margin-bottom: 0px">Profile: <a href="StructureDefinition-PPLManufacturedItemDefinition.html">PPL Manufactured Item profile</a></p></div><p><b>status</b>: active</p><p><b>manufacturedDoseForm</b>: Powder for solution for injection/infusion <span style="background: LightGoldenRodYellow; margin: 4px; border: 1px solid khaki"> (<a href="CodeSystem-pharmaceutical-dose-form-ema-cs.html">Pharmaceutical Dose Form EMA</a>#100000116186)</span></p><p><b>unitOfPresentation</b>: Ampoule <span style="background: LightGoldenRodYellow; margin: 4px; border: 1px solid khaki"> (<a href="CodeSystem-unit-of-presentation-ema-cs.html">Unit of Presentation EMA</a>#200000002164)</span></p></div>
        </text>
        <status value="active"/>
        <manufacturedDoseForm>
          <coding>
            <system value="https://spor.ema.europa.eu/v1/lists/200000000004"/>
            <code value="100000116186"/>
            <display value="Powder for solution for injection/infusion"/>
          </coding>
        </manufacturedDoseForm>
        <unitOfPresentation>
          <coding>
            <system value="https://spor.ema.europa.eu/v1/lists/200000000014"/>
            <code value="200000002164"/>
            <display value="Ampoule"/>
          </coding>
        </unitOfPresentation>
      </ManufacturedItemDefinition>
    </resource>
  </entry>
  <entry>
    <fullUrl value="https://hl7-eu.github.io/unicom-ig/Ingredient-Curocef-1500mg-Powder-AT-Ingredient"/>
    <resource>
      <Ingredient>
        <id value="Curocef-1500mg-Powder-AT-Ingredient"/>
        <meta>
          <profile value="http://unicom-project.eu/fhir/StructureDefinition/PPLIngredient"/>
        </meta>
        <text>
          <status value="generated"/><div xmlns="http://www.w3.org/1999/xhtml"><a name="Ingredient_Curocef-1500mg-Powder-AT-Ingredient"> </a><p><b>Generated Narrative: Ingredient</b><a name="Curocef-1500mg-Powder-AT-Ingredient"> </a><a name="hcCurocef-1500mg-Powder-AT-Ingredient"> </a></p><div style="display: inline-block; background-color: #d9e0e7; padding: 6px; margin: 4px; border: 1px solid #8da1b4; border-radius: 5px; line-height: 60%"><p style="margin-bottom: 0px">Resource Ingredient &quot;Curocef-1500mg-Powder-AT-Ingredient&quot; </p><p style="margin-bottom: 0px">Profile: <a href="StructureDefinition-PPLIngredient.html">PPL Ingredient profile</a></p></div><p><b>status</b>: active</p><p><b>for</b>: </p><ul><li>See on this page: MedicinalProductDefinition/Curocef-1500mg-Powder-AT-MPD</li><li>See on this page: ManufacturedItemDefinition/Curocef-1500mg-Powder-AT-MID</li><li>See on this page: AdministrableProductDefinition/Curocef-1500mg-Powder-AT-APD</li></ul><p><b>role</b>: Active <span style="background: LightGoldenRodYellow; margin: 4px; border: 1px solid khaki"> (100000072050#100000072072)</span></p><blockquote><p><b>substance</b></p><h3>Codes</h3><table class="grid"><tr><td style="display: none">-</td><td><b>Concept</b></td></tr><tr><td style="display: none">*</td><td>cefuroxime sodium <span style="background: LightGoldenRodYellow; margin: 4px; border: 1px solid khaki"> (<a href="CodeSystem-substance-sms-cs.html">Substances EMA SPOR SMS</a>#100000091436)</span></td></tr></table><blockquote><p><b>strength</b></p><p><b>presentation</b>: 1578 milligram(s)<span style="background: LightGoldenRodYellow"> (Details: https://spor.ema.europa.eu/v1/lists/100000110633 code 10000100000110655 = '10000100000110655')</span>/1 Ampoule<span style="background: LightGoldenRodYellow"> (Details: https://spor.ema.europa.eu/v1/lists/200000000014 code 200000002164 = 'Ampoule')</span></p><blockquote><p><b>referenceStrength</b></p><h3>Substances</h3><table class="grid"><tr><td style="display: none">-</td><td><b>Concept</b></td></tr><tr><td style="display: none">*</td><td>cefuroxime <span style="background: LightGoldenRodYellow; margin: 4px; border: 1px solid khaki"> (<a href="CodeSystem-substance-sms-cs.html">Substances EMA SPOR SMS</a>#100000092667)</span></td></tr></table><p><b>strength</b>: 1500 milligram(s)<span style="background: LightGoldenRodYellow"> (Details: https://spor.ema.europa.eu/v1/lists/100000110633 code 10000100000110655 = '10000100000110655')</span>/1 Ampoule<span style="background: LightGoldenRodYellow"> (Details: https://spor.ema.europa.eu/v1/lists/200000000014 code 200000002164 = 'Ampoule')</span></p></blockquote></blockquote></blockquote></div>
        </text>
        <status value="active"/>
        <for>
          <reference value="MedicinalProductDefinition/Curocef-1500mg-Powder-AT-MPD"/>
        </for>
        <for>
          <reference value="ManufacturedItemDefinition/Curocef-1500mg-Powder-AT-MID"/>
        </for>
        <for>
          <reference value="AdministrableProductDefinition/Curocef-1500mg-Powder-AT-APD"/>
        </for>
        <role>
          <coding>
            <system value="https://spor.ema.europa.eu/v1/lists/100000072050"/>
            <code value="100000072072"/>
            <display value="Active"/>
          </coding>
        </role>
        <substance>
          <code>
            <concept>
              <coding>
                <system value="https://spor.ema.europa.eu/v2/SubstanceDefinition"/>
                <code value="100000091436"/>
                <display value="cefuroxime sodium"/>
              </coding>
            </concept>
          </code>
          <strength>
            <presentationRatio>
              <numerator>
                <value value="1578"/>
                <unit value="milligram(s)"/>
                <system value="https://spor.ema.europa.eu/v1/lists/100000110633"/>
                <code value="10000100000110655"/>
              </numerator>
              <denominator>
                <value value="1"/>
                <unit value="Ampoule"/>
                <system value="https://spor.ema.europa.eu/v1/lists/200000000014"/>
                <code value="200000002164"/>
              </denominator>
            </presentationRatio>
            <referenceStrength>
              <substance>
                <concept>
                  <coding>
                    <system value="https://spor.ema.europa.eu/v2/SubstanceDefinition"/>
                    <code value="100000092667"/>
                    <display value="cefuroxime"/>
                  </coding>
                </concept>
              </substance>
              <strengthRatio>
                <numerator>
                  <value value="1500"/>
                  <unit value="milligram(s)"/>
                  <system value="https://spor.ema.europa.eu/v1/lists/100000110633"/>
                  <code value="10000100000110655"/>
                </numerator>
                <denominator>
                  <value value="1"/>
                  <unit value="Ampoule"/>
                  <system value="https://spor.ema.europa.eu/v1/lists/200000000014"/>
                  <code value="200000002164"/>
                </denominator>
              </strengthRatio>
            </referenceStrength>
          </strength>
        </substance>
      </Ingredient>
    </resource>
  </entry>
</Bundle>