{
  "resourceType" : "Bundle",
  "id" : "016-Lodipin-10mg-Capsule-GR-FullProduct",
  "type" : "collection",
  "entry" : [{
    "fullUrl" : "https://hl7-eu.github.io/unicom-ig/branches/mpd-r4b/MedicinalProductDefinition-Lodipin-10mg-Capsule-GR-MPD",
    "resource" : {
      "resourceType" : "MedicinalProductDefinition",
      "id" : "Lodipin-10mg-Capsule-GR-MPD",
      "meta" : {
        "profile" : ["http://unicom-project.eu/fhir/StructureDefinition/PPLMedicinalProductDefinition"]
      },
      "text" : {
        "status" : "generated",
        "div" : "<div xmlns=\"http://www.w3.org/1999/xhtml\"><a name=\"MedicinalProductDefinition_Lodipin-10mg-Capsule-GR-MPD\"> </a><p><b>Generated Narrative: MedicinalProductDefinition</b><a name=\"Lodipin-10mg-Capsule-GR-MPD\"> </a><a name=\"hcLodipin-10mg-Capsule-GR-MPD\"> </a></p><div style=\"display: inline-block; background-color: #d9e0e7; padding: 6px; margin: 4px; border: 1px solid #8da1b4; border-radius: 5px; line-height: 60%\"><p style=\"margin-bottom: 0px\">Resource MedicinalProductDefinition &quot;Lodipin-10mg-Capsule-GR-MPD&quot; </p><p style=\"margin-bottom: 0px\">Profile: <a href=\"StructureDefinition-PPLMedicinalProductDefinition.html\">PPL Medicinal Product profile</a></p></div><p><b>identifier</b>: <code>http://ema.europa.eu/fhir/mpId</code>/GR-100005016-2584402</p><p><b>domain</b>: Human use <span style=\"background: LightGoldenRodYellow; margin: 4px; border: 1px solid khaki\"> (<a href=\"CodeSystem-domain-ema-cs.html\">Domain EMA</a>#100000000012)</span></p><p><b>status</b>: Current <span style=\"background: LightGoldenRodYellow; margin: 4px; border: 1px solid khaki\"> (<a href=\"CodeSystem-recordStatus-ema-cs.html\">Record Status EMA SPOR</a>#200000005004)</span></p><p><b>combinedPharmaceuticalDoseForm</b>: Capsule, hard <span style=\"background: LightGoldenRodYellow; margin: 4px; border: 1px solid khaki\"> (<a href=\"CodeSystem-pharmaceutical-dose-form-ema-cs.html\">Pharmaceutical Dose Form EMA</a>#100000073375)</span></p><p><b>legalStatusOfSupply</b>: Medicinal product subject to medical prescription <span style=\"background: LightGoldenRodYellow; margin: 4px; border: 1px solid khaki\"> (<a href=\"CodeSystem-legal-status-for-the-supply-ema-cs.html\">Legal Status for the Supply EMA</a>#100000072084)</span></p><p><b>classification</b>: amlodipine <span style=\"background: LightGoldenRodYellow; margin: 4px; border: 1px solid khaki\"> (<a href=\"CodeSystem-ATC-Human-EMA.html\">ATC Human EMA</a>#100000095065)</span>, amlodipine <span style=\"background: LightGoldenRodYellow; margin: 4px; border: 1px solid khaki\"> (<a href=\"http://terminology.hl7.org/5.5.0/CodeSystem-v3-WC.html\">WHO ATC</a>#C08CA01)</span></p><blockquote><p><b>name</b></p><p><b>productName</b>: LODIPIN 10 mg καψάκια, σκληρά</p><blockquote><p><b>part</b></p><p><b>part</b>: LODIPIN</p><p><b>type</b>: Invented name part <span style=\"background: LightGoldenRodYellow; margin: 4px; border: 1px solid khaki\"> (220000000000#220000000002)</span></p></blockquote><blockquote><p><b>part</b></p><p><b>part</b>: 10 mg</p><p><b>type</b>: Strength part <span style=\"background: LightGoldenRodYellow; margin: 4px; border: 1px solid khaki\"> (220000000000#220000000004)</span></p></blockquote><blockquote><p><b>part</b></p><p><b>part</b>: καψάκια, σκληρά</p><p><b>type</b>: Pharmaceutical dose form part <span style=\"background: LightGoldenRodYellow; margin: 4px; border: 1px solid khaki\"> (220000000000#220000000005)</span></p></blockquote><h3>Usages</h3><table class=\"grid\"><tr><td style=\"display: none\">-</td><td><b>Country</b></td><td><b>Language</b></td></tr><tr><td style=\"display: none\">*</td><td>Hellenic Republic <span style=\"background: LightGoldenRodYellow; margin: 4px; border: 1px solid khaki\"> (<a href=\"CodeSystem-country-ema-cs.html\">Country EMA</a>#100000000406)</span></td><td>Modern Greek (1453-) <span style=\"background: LightGoldenRodYellow; margin: 4px; border: 1px solid khaki\"> (<a href=\"http://terminology.hl7.org/5.5.0/CodeSystem-v3-ietf3066.html\">Tags for the Identification of Languages</a>#el)</span></td></tr></table></blockquote></div>"
      },
      "identifier" : [{
        "system" : "http://ema.europa.eu/fhir/mpId",
        "value" : "GR-100005016-2584402"
      }],
      "domain" : {
        "coding" : [{
          "system" : "https://spor.ema.europa.eu/v1/lists/100000000004",
          "code" : "100000000012",
          "display" : "Human use"
        }]
      },
      "status" : {
        "coding" : [{
          "system" : "https://spor.ema.europa.eu/v1/lists/200000005003",
          "code" : "200000005004",
          "display" : "Current"
        }]
      },
      "combinedPharmaceuticalDoseForm" : {
        "coding" : [{
          "system" : "https://spor.ema.europa.eu/v1/lists/200000000004",
          "code" : "100000073375",
          "display" : "Capsule, hard"
        }]
      },
      "legalStatusOfSupply" : {
        "coding" : [{
          "system" : "https://spor.ema.europa.eu/v1/lists/100000072051",
          "code" : "100000072084",
          "display" : "Medicinal product subject to medical prescription"
        }]
      },
      "classification" : [{
        "coding" : [{
          "system" : "https://spor.ema.europa.eu/v1/lists/100000093533",
          "code" : "100000095065",
          "display" : "amlodipine"
        }]
      },
      {
        "coding" : [{
          "system" : "http://www.whocc.no/atc",
          "code" : "C08CA01",
          "display" : "amlodipine"
        }]
      }],
      "name" : [{
        "productName" : "LODIPIN 10 mg καψάκια, σκληρά",
        "part" : [{
          "part" : "LODIPIN",
          "type" : {
            "coding" : [{
              "system" : "https://spor.ema.europa.eu/v1/lists/220000000000",
              "code" : "220000000002",
              "display" : "Invented name part"
            }]
          }
        },
        {
          "part" : "10 mg",
          "type" : {
            "coding" : [{
              "system" : "https://spor.ema.europa.eu/v1/lists/220000000000",
              "code" : "220000000004",
              "display" : "Strength part"
            }]
          }
        },
        {
          "part" : "καψάκια, σκληρά",
          "type" : {
            "coding" : [{
              "system" : "https://spor.ema.europa.eu/v1/lists/220000000000",
              "code" : "220000000005",
              "display" : "Pharmaceutical dose form part"
            }]
          }
        }],
        "usage" : [{
          "country" : {
            "coding" : [{
              "system" : "https://spor.ema.europa.eu/v1/lists/100000000002",
              "code" : "100000000406",
              "display" : "Hellenic Republic"
            }]
          },
          "language" : {
            "coding" : [{
              "system" : "urn:ietf:bcp:47",
              "code" : "el",
              "display" : "Modern Greek (1453-)"
            }]
          }
        }]
      }]
    }
  },
  {
    "fullUrl" : "https://hl7-eu.github.io/unicom-ig/branches/mpd-r4b/RegulatedAuthorization-Lodipin-10mg-Capsule-GR-RA",
    "resource" : {
      "resourceType" : "RegulatedAuthorization",
      "id" : "Lodipin-10mg-Capsule-GR-RA",
      "meta" : {
        "profile" : ["http://unicom-project.eu/fhir/StructureDefinition/PPLRegulatedAuthorization"]
      },
      "text" : {
        "status" : "generated",
        "div" : "<div xmlns=\"http://www.w3.org/1999/xhtml\"><a name=\"RegulatedAuthorization_Lodipin-10mg-Capsule-GR-RA\"> </a><p><b>Generated Narrative: RegulatedAuthorization</b><a name=\"Lodipin-10mg-Capsule-GR-RA\"> </a><a name=\"hcLodipin-10mg-Capsule-GR-RA\"> </a></p><div style=\"display: inline-block; background-color: #d9e0e7; padding: 6px; margin: 4px; border: 1px solid #8da1b4; border-radius: 5px; line-height: 60%\"><p style=\"margin-bottom: 0px\">Resource RegulatedAuthorization &quot;Lodipin-10mg-Capsule-GR-RA&quot; </p><p style=\"margin-bottom: 0px\">Profile: <a href=\"StructureDefinition-PPLRegulatedAuthorization.html\">PPL Marketing Authorisation profile</a></p></div><p><b>identifier</b>: 100005016xyz</p><p><b>subject</b>: See on this page: MedicinalProductDefinition/Lodipin-10mg-Capsule-GR-MPD</p><p><b>type</b>: Marketing Authorisation <span style=\"background: LightGoldenRodYellow; margin: 4px; border: 1px solid khaki\"> (220000000060#220000000061)</span></p><p><b>region</b>: Hellenic Republic <span style=\"background: LightGoldenRodYellow; margin: 4px; border: 1px solid khaki\"> (<a href=\"CodeSystem-country-ema-cs.html\">Country EMA</a>#100000000406)</span></p><p><b>status</b>: Valid <span style=\"background: LightGoldenRodYellow; margin: 4px; border: 1px solid khaki\"> (<a href=\"CodeSystem-regulatoryStatus-ema-cs.html\">Regulatory Entitlement Status EMA SPOR</a>#100000072099)</span></p><p><b>statusDate</b>: 2022-10-01</p><p><b>holder</b>: See on this page: Organization/LOC-100005016-Iasis</p></div>"
      },
      "identifier" : [{
        "value" : "100005016xyz"
      }],
      "subject" : [{
        "reference" : "MedicinalProductDefinition/Lodipin-10mg-Capsule-GR-MPD"
      }],
      "type" : {
        "coding" : [{
          "system" : "https://spor.ema.europa.eu/v1/lists/220000000060",
          "code" : "220000000061",
          "display" : "Marketing Authorisation"
        }]
      },
      "region" : [{
        "coding" : [{
          "system" : "https://spor.ema.europa.eu/v1/lists/100000000002",
          "code" : "100000000406",
          "display" : "Hellenic Republic"
        }]
      }],
      "status" : {
        "coding" : [{
          "system" : "https://spor.ema.europa.eu/v1/lists/100000072049",
          "code" : "100000072099",
          "display" : "Valid"
        }]
      },
      "statusDate" : "2022-10-01",
      "holder" : {
        "reference" : "Organization/LOC-100005016-Iasis"
      }
    }
  },
  {
    "fullUrl" : "https://hl7-eu.github.io/unicom-ig/branches/mpd-r4b/Organization-LOC-100005016-Iasis",
    "resource" : {
      "resourceType" : "Organization",
      "id" : "LOC-100005016-Iasis",
      "meta" : {
        "profile" : ["http://unicom-project.eu/fhir/StructureDefinition/PPLOrganization"]
      },
      "text" : {
        "status" : "generated",
        "div" : "<div xmlns=\"http://www.w3.org/1999/xhtml\"><a name=\"Organization_LOC-100005016-Iasis\"> </a><p><b>Generated Narrative: Organization</b><a name=\"LOC-100005016-Iasis\"> </a><a name=\"hcLOC-100005016-Iasis\"> </a></p><div style=\"display: inline-block; background-color: #d9e0e7; padding: 6px; margin: 4px; border: 1px solid #8da1b4; border-radius: 5px; line-height: 60%\"><p style=\"margin-bottom: 0px\">Resource Organization &quot;LOC-100005016-Iasis&quot; </p><p style=\"margin-bottom: 0px\">Profile: <a href=\"StructureDefinition-PPLOrganization.html\">PPL Organization</a></p></div><p><b>identifier</b>: <code>https://spor.ema.europa.eu/v1/locations</code>/LOC-100005016, <code>https://spor.ema.europa.eu/v1/organisations</code>/ORG-100005779</p><p><b>name</b>: Iasis Pharmaceuticals Hellas S.A.</p></div>"
      },
      "identifier" : [{
        "system" : "https://spor.ema.europa.eu/v1/locations",
        "value" : "LOC-100005016"
      },
      {
        "system" : "https://spor.ema.europa.eu/v1/organisations",
        "value" : "ORG-100005779"
      }],
      "name" : "Iasis Pharmaceuticals Hellas S.A."
    }
  },
  {
    "fullUrl" : "https://hl7-eu.github.io/unicom-ig/branches/mpd-r4b/AdministrableProductDefinition-Lodipin-10mg-Capsule-GR-APD",
    "resource" : {
      "resourceType" : "AdministrableProductDefinition",
      "id" : "Lodipin-10mg-Capsule-GR-APD",
      "meta" : {
        "profile" : ["http://unicom-project.eu/fhir/StructureDefinition/PPLAdministrableProductDefinition"]
      },
      "text" : {
        "status" : "generated",
        "div" : "<div xmlns=\"http://www.w3.org/1999/xhtml\"><a name=\"AdministrableProductDefinition_Lodipin-10mg-Capsule-GR-APD\"> </a><p><b>Generated Narrative: AdministrableProductDefinition</b><a name=\"Lodipin-10mg-Capsule-GR-APD\"> </a><a name=\"hcLodipin-10mg-Capsule-GR-APD\"> </a></p><div style=\"display: inline-block; background-color: #d9e0e7; padding: 6px; margin: 4px; border: 1px solid #8da1b4; border-radius: 5px; line-height: 60%\"><p style=\"margin-bottom: 0px\">Resource AdministrableProductDefinition &quot;Lodipin-10mg-Capsule-GR-APD&quot; </p><p style=\"margin-bottom: 0px\">Profile: <a href=\"StructureDefinition-PPLAdministrableProductDefinition.html\">PPL Administrable Product profile</a></p></div><p><b>status</b>: active</p><p><b>formOf</b>: See on this page: MedicinalProductDefinition/Lodipin-10mg-Capsule-GR-MPD</p><p><b>administrableDoseForm</b>: Capsule, hard <span style=\"background: LightGoldenRodYellow; margin: 4px; border: 1px solid khaki\"> (<a href=\"CodeSystem-pharmaceutical-dose-form-ema-cs.html\">Pharmaceutical Dose Form EMA</a>#100000073375)</span></p><p><b>unitOfPresentation</b>: Capsule <span style=\"background: LightGoldenRodYellow; margin: 4px; border: 1px solid khaki\"> (<a href=\"CodeSystem-unit-of-presentation-ema-cs.html\">Unit of Presentation EMA</a>#200000002113)</span></p><p><b>producedFrom</b>: See on this page: ManufacturedItemDefinition/Lodipin-10mg-Capsule-GR-MID</p><h3>RouteOfAdministrations</h3><table class=\"grid\"><tr><td style=\"display: none\">-</td><td><b>Code</b></td></tr><tr><td style=\"display: none\">*</td><td>Oral use <span style=\"background: LightGoldenRodYellow; margin: 4px; border: 1px solid khaki\"> (<a href=\"CodeSystem-routes-and-methods-of-administration-ema-cs.html\">Routes and Methods of Administration EMA</a>#100000073619)</span></td></tr></table></div>"
      },
      "status" : "active",
      "formOf" : [{
        "reference" : "MedicinalProductDefinition/Lodipin-10mg-Capsule-GR-MPD"
      }],
      "administrableDoseForm" : {
        "coding" : [{
          "system" : "https://spor.ema.europa.eu/v1/lists/200000000004",
          "code" : "100000073375",
          "display" : "Capsule, hard"
        }]
      },
      "unitOfPresentation" : {
        "coding" : [{
          "system" : "https://spor.ema.europa.eu/v1/lists/200000000014",
          "code" : "200000002113",
          "display" : "Capsule"
        }]
      },
      "producedFrom" : [{
        "reference" : "ManufacturedItemDefinition/Lodipin-10mg-Capsule-GR-MID"
      }],
      "routeOfAdministration" : [{
        "code" : {
          "coding" : [{
            "system" : "https://spor.ema.europa.eu/v1/lists/100000073345",
            "code" : "100000073619",
            "display" : "Oral use"
          }]
        }
      }]
    }
  },
  {
    "fullUrl" : "https://hl7-eu.github.io/unicom-ig/branches/mpd-r4b/ManufacturedItemDefinition-Lodipin-10mg-Capsule-GR-MID",
    "resource" : {
      "resourceType" : "ManufacturedItemDefinition",
      "id" : "Lodipin-10mg-Capsule-GR-MID",
      "meta" : {
        "profile" : ["http://unicom-project.eu/fhir/StructureDefinition/PPLManufacturedItemDefinition"]
      },
      "text" : {
        "status" : "generated",
        "div" : "<div xmlns=\"http://www.w3.org/1999/xhtml\"><a name=\"ManufacturedItemDefinition_Lodipin-10mg-Capsule-GR-MID\"> </a><p><b>Generated Narrative: ManufacturedItemDefinition</b><a name=\"Lodipin-10mg-Capsule-GR-MID\"> </a><a name=\"hcLodipin-10mg-Capsule-GR-MID\"> </a></p><div style=\"display: inline-block; background-color: #d9e0e7; padding: 6px; margin: 4px; border: 1px solid #8da1b4; border-radius: 5px; line-height: 60%\"><p style=\"margin-bottom: 0px\">Resource ManufacturedItemDefinition &quot;Lodipin-10mg-Capsule-GR-MID&quot; </p><p style=\"margin-bottom: 0px\">Profile: <a href=\"StructureDefinition-PPLManufacturedItemDefinition.html\">PPL Manufactured Item profile</a></p></div><p><b>status</b>: active</p><p><b>manufacturedDoseForm</b>: Capsule, hard <span style=\"background: LightGoldenRodYellow; margin: 4px; border: 1px solid khaki\"> (<a href=\"CodeSystem-pharmaceutical-dose-form-ema-cs.html\">Pharmaceutical Dose Form EMA</a>#100000073375)</span></p><p><b>unitOfPresentation</b>: Capsule <span style=\"background: LightGoldenRodYellow; margin: 4px; border: 1px solid khaki\"> (<a href=\"CodeSystem-unit-of-presentation-ema-cs.html\">Unit of Presentation EMA</a>#200000002113)</span></p></div>"
      },
      "status" : "active",
      "manufacturedDoseForm" : {
        "coding" : [{
          "system" : "https://spor.ema.europa.eu/v1/lists/200000000004",
          "code" : "100000073375",
          "display" : "Capsule, hard"
        }]
      },
      "unitOfPresentation" : {
        "coding" : [{
          "system" : "https://spor.ema.europa.eu/v1/lists/200000000014",
          "code" : "200000002113",
          "display" : "Capsule"
        }]
      }
    }
  },
  {
    "fullUrl" : "https://hl7-eu.github.io/unicom-ig/branches/mpd-r4b/Ingredient-Lodipin-10mg-Capsule-GR-I",
    "resource" : {
      "resourceType" : "Ingredient",
      "id" : "Lodipin-10mg-Capsule-GR-I",
      "meta" : {
        "profile" : ["http://unicom-project.eu/fhir/StructureDefinition/PPLIngredient"]
      },
      "text" : {
        "status" : "generated",
        "div" : "<div xmlns=\"http://www.w3.org/1999/xhtml\"><a name=\"Ingredient_Lodipin-10mg-Capsule-GR-I\"> </a><p><b>Generated Narrative: Ingredient</b><a name=\"Lodipin-10mg-Capsule-GR-I\"> </a><a name=\"hcLodipin-10mg-Capsule-GR-I\"> </a></p><div style=\"display: inline-block; background-color: #d9e0e7; padding: 6px; margin: 4px; border: 1px solid #8da1b4; border-radius: 5px; line-height: 60%\"><p style=\"margin-bottom: 0px\">Resource Ingredient &quot;Lodipin-10mg-Capsule-GR-I&quot; </p><p style=\"margin-bottom: 0px\">Profile: <a href=\"StructureDefinition-PPLIngredient.html\">PPL Ingredient profile</a></p></div><p><b>status</b>: active</p><p><b>for</b>: </p><ul><li>See on this page: MedicinalProductDefinition/Lodipin-10mg-Capsule-GR-MPD</li><li>See on this page: ManufacturedItemDefinition/Lodipin-10mg-Capsule-GR-MID</li><li>See on this page: AdministrableProductDefinition/Lodipin-10mg-Capsule-GR-APD</li></ul><p><b>role</b>: Active <span style=\"background: LightGoldenRodYellow; margin: 4px; border: 1px solid khaki\"> (100000072050#100000072072)</span></p><blockquote><p><b>substance</b></p><h3>Codes</h3><table class=\"grid\"><tr><td style=\"display: none\">-</td><td><b>Concept</b></td></tr><tr><td style=\"display: none\">*</td><td>Amlodipine besilate <span style=\"background: LightGoldenRodYellow; margin: 4px; border: 1px solid khaki\"> (<a href=\"CodeSystem-substance-sms-cs.html\">Substances EMA SPOR SMS</a>#100000090079)</span></td></tr></table><blockquote><p><b>strength</b></p><p><b>presentation</b>: 13.889 milligram(s)<span style=\"background: LightGoldenRodYellow\"> (Details: https://spor.ema.europa.eu/v1/lists/100000110633 code 100000110655 = 'milligram(s)')</span>/1 Capsule<span style=\"background: LightGoldenRodYellow\"> (Details: https://spor.ema.europa.eu/v1/lists/200000000014 code 200000002113 = 'Capsule')</span></p><blockquote><p><b>referenceStrength</b></p><h3>Substances</h3><table class=\"grid\"><tr><td style=\"display: none\">-</td><td><b>Concept</b></td></tr><tr><td style=\"display: none\">*</td><td>Amlodipine <span style=\"background: LightGoldenRodYellow; margin: 4px; border: 1px solid khaki\"> (<a href=\"CodeSystem-substance-sms-cs.html\">Substances EMA SPOR SMS</a>#100000085259)</span></td></tr></table><p><b>strength</b>: 10 milligram(s)<span style=\"background: LightGoldenRodYellow\"> (Details: https://spor.ema.europa.eu/v1/lists/100000110633 code 100000110655 = 'milligram(s)')</span>/1 Capsule<span style=\"background: LightGoldenRodYellow\"> (Details: https://spor.ema.europa.eu/v1/lists/200000000014 code 200000002113 = 'Capsule')</span></p></blockquote></blockquote></blockquote></div>"
      },
      "status" : "active",
      "for" : [{
        "reference" : "MedicinalProductDefinition/Lodipin-10mg-Capsule-GR-MPD"
      },
      {
        "reference" : "ManufacturedItemDefinition/Lodipin-10mg-Capsule-GR-MID"
      },
      {
        "reference" : "AdministrableProductDefinition/Lodipin-10mg-Capsule-GR-APD"
      }],
      "role" : {
        "coding" : [{
          "system" : "https://spor.ema.europa.eu/v1/lists/100000072050",
          "code" : "100000072072",
          "display" : "Active"
        }]
      },
      "substance" : {
        "code" : {
          "concept" : {
            "coding" : [{
              "system" : "https://spor.ema.europa.eu/v2/SubstanceDefinition",
              "code" : "100000090079",
              "display" : "Amlodipine besilate"
            }]
          }
        },
        "strength" : [{
          "presentationRatio" : {
            "numerator" : {
              "value" : 13.889,
              "unit" : "milligram(s)",
              "system" : "https://spor.ema.europa.eu/v1/lists/100000110633",
              "code" : "100000110655"
            },
            "denominator" : {
              "value" : 1,
              "unit" : "Capsule",
              "system" : "https://spor.ema.europa.eu/v1/lists/200000000014",
              "code" : "200000002113"
            }
          },
          "referenceStrength" : [{
            "substance" : {
              "concept" : {
                "coding" : [{
                  "system" : "https://spor.ema.europa.eu/v2/SubstanceDefinition",
                  "code" : "100000085259",
                  "display" : "Amlodipine"
                }]
              }
            },
            "strengthRatio" : {
              "numerator" : {
                "value" : 10,
                "unit" : "milligram(s)",
                "system" : "https://spor.ema.europa.eu/v1/lists/100000110633",
                "code" : "100000110655"
              },
              "denominator" : {
                "value" : 1,
                "unit" : "Capsule",
                "system" : "https://spor.ema.europa.eu/v1/lists/200000000014",
                "code" : "200000002113"
              }
            }
          }]
        }]
      }
    }
  },
  {
    "fullUrl" : "https://hl7-eu.github.io/unicom-ig/branches/mpd-r4b/PackagedProductDefinition-Lodipin-10mg-Capsule-GR-PPD-2802584402021",
    "resource" : {
      "resourceType" : "PackagedProductDefinition",
      "id" : "Lodipin-10mg-Capsule-GR-PPD-2802584402021",
      "meta" : {
        "profile" : ["http://unicom-project.eu/fhir/StructureDefinition/PPLPackagedProductDefinition"]
      },
      "text" : {
        "status" : "generated",
        "div" : "<div xmlns=\"http://www.w3.org/1999/xhtml\"><a name=\"PackagedProductDefinition_Lodipin-10mg-Capsule-GR-PPD-2802584402021\"> </a><p><b>Generated Narrative: PackagedProductDefinition</b><a name=\"Lodipin-10mg-Capsule-GR-PPD-2802584402021\"> </a><a name=\"hcLodipin-10mg-Capsule-GR-PPD-2802584402021\"> </a></p><div style=\"display: inline-block; background-color: #d9e0e7; padding: 6px; margin: 4px; border: 1px solid #8da1b4; border-radius: 5px; line-height: 60%\"><p style=\"margin-bottom: 0px\">Resource PackagedProductDefinition &quot;Lodipin-10mg-Capsule-GR-PPD-2802584402021&quot; </p><p style=\"margin-bottom: 0px\">Profile: <a href=\"StructureDefinition-PPLPackagedProductDefinition.html\">PPL Packaged Product profile</a></p></div><p><b>identifier</b>: <code>http://ema.europa.eu/example/pcid</code>/GR-100005016-2584402-2802584402021</p><p><b>packageFor</b>: See on this page: MedicinalProductDefinition/Lodipin-10mg-Capsule-GR-MPD</p><p><b>containedItemQuantity</b>: 14 Capsule<span style=\"background: LightGoldenRodYellow\"> (Details: https://spor.ema.europa.eu/v1/lists/200000000014 code 200000002113 = 'Capsule')</span></p><p><b>description</b>: 14 κάψουλες ή 30 κάψουλες συσκευασμένες σε 2 blister x 7 caps και 3 blister x 10 caps\nαντίστοιχα, από PVC/aluminium foil (πάνω στο οποίο είναι τυπωμένη η ημερομηνία λήξης \nτου προϊόντος και η παρτίδα του). To blister τοποθετείται σε κουτί από χαρτόνι, στο οποίο \nείναι τυπωμένα στοιχεία LOT και EXP του προϊόντος.</p><h3>MarketingStatuses</h3><table class=\"grid\"><tr><td style=\"display: none\">-</td><td><b>Country</b></td><td><b>Status</b></td></tr><tr><td style=\"display: none\">*</td><td>Hellenic Republic <span style=\"background: LightGoldenRodYellow; margin: 4px; border: 1px solid khaki\"> (<a href=\"CodeSystem-country-ema-cs.html\">Country EMA</a>#100000000406)</span></td><td>Marketed <span style=\"background: LightGoldenRodYellow; margin: 4px; border: 1px solid khaki\"> (<a href=\"CodeSystem-Marketing-Status-ema-cs.html\">Marketing Status EMA</a>#100000072083)</span></td></tr></table><blockquote><p><b>packaging</b></p><p><b>type</b>: Box <span style=\"background: LightGoldenRodYellow; margin: 4px; border: 1px solid khaki\"> (<a href=\"CodeSystem-packaging-ema-cs.html\">Packaging EMA SPOR</a>#100000073498)</span></p><p><b>quantity</b>: 1</p><p><b>material</b>: Cardboard <span style=\"background: LightGoldenRodYellow; margin: 4px; border: 1px solid khaki\"> (<a href=\"CodeSystem-material-ema-cs.html\">Material EMA</a>#200000003529)</span></p><blockquote><p><b>packaging</b></p><p><b>type</b>: Blister <span style=\"background: LightGoldenRodYellow; margin: 4px; border: 1px solid khaki\"> (<a href=\"CodeSystem-packaging-ema-cs.html\">Packaging EMA SPOR</a>#100000073496)</span></p><p><b>quantity</b>: 2</p><p><b>material</b>: PolyVinyl Chloride <span style=\"background: LightGoldenRodYellow; margin: 4px; border: 1px solid khaki\"> (<a href=\"CodeSystem-material-ema-cs.html\">Material EMA</a>#200000003222)</span>, PolyVinylidene Chloride <span style=\"background: LightGoldenRodYellow; margin: 4px; border: 1px solid khaki\"> (<a href=\"CodeSystem-material-ema-cs.html\">Material EMA</a>#200000003225)</span>, Aluminium <span style=\"background: LightGoldenRodYellow; margin: 4px; border: 1px solid khaki\"> (<a href=\"CodeSystem-material-ema-cs.html\">Material EMA</a>#200000003200)</span></p><blockquote><p><b>containedItem</b></p></blockquote></blockquote></blockquote></div>"
      },
      "identifier" : [{
        "system" : "http://ema.europa.eu/example/pcid",
        "value" : "GR-100005016-2584402-2802584402021"
      }],
      "packageFor" : [{
        "reference" : "MedicinalProductDefinition/Lodipin-10mg-Capsule-GR-MPD"
      }],
      "containedItemQuantity" : [{
        "value" : 14,
        "unit" : "Capsule",
        "system" : "https://spor.ema.europa.eu/v1/lists/200000000014",
        "code" : "200000002113"
      }],
      "description" : "14 κάψουλες ή 30 κάψουλες συσκευασμένες σε 2 blister x 7 caps και 3 blister x 10 caps\nαντίστοιχα, από PVC/aluminium foil (πάνω στο οποίο είναι τυπωμένη η ημερομηνία λήξης \nτου προϊόντος και η παρτίδα του). To blister τοποθετείται σε κουτί από χαρτόνι, στο οποίο \nείναι τυπωμένα στοιχεία LOT και EXP του προϊόντος.",
      "marketingStatus" : [{
        "country" : {
          "coding" : [{
            "system" : "https://spor.ema.europa.eu/v1/lists/100000000002",
            "code" : "100000000406",
            "display" : "Hellenic Republic"
          }]
        },
        "status" : {
          "coding" : [{
            "system" : "https://spor.ema.europa.eu/v1/lists/100000072052",
            "code" : "100000072083",
            "display" : "Marketed"
          }]
        }
      }],
      "packaging" : {
        "type" : {
          "coding" : [{
            "system" : "https://spor.ema.europa.eu/v1/lists/100000073346",
            "code" : "100000073498",
            "display" : "Box"
          }]
        },
        "quantity" : 1,
        "material" : [{
          "coding" : [{
            "system" : "https://spor.ema.europa.eu/v1/lists/200000003199",
            "code" : "200000003529",
            "display" : "Cardboard"
          }]
        }],
        "packaging" : [{
          "type" : {
            "coding" : [{
              "system" : "https://spor.ema.europa.eu/v1/lists/100000073346",
              "code" : "100000073496",
              "display" : "Blister"
            }]
          },
          "quantity" : 2,
          "material" : [{
            "coding" : [{
              "system" : "https://spor.ema.europa.eu/v1/lists/200000003199",
              "code" : "200000003222",
              "display" : "PolyVinyl Chloride"
            }]
          },
          {
            "coding" : [{
              "system" : "https://spor.ema.europa.eu/v1/lists/200000003199",
              "code" : "200000003225",
              "display" : "PolyVinylidene Chloride"
            }]
          },
          {
            "coding" : [{
              "system" : "https://spor.ema.europa.eu/v1/lists/200000003199",
              "code" : "200000003200",
              "display" : "Aluminium"
            }]
          }],
          "containedItem" : [{
            "item" : {
              "reference" : {
                "reference" : "ManufacturedItemDefinition/Lodipin-10mg-Capsule-GR-MID"
              }
            },
            "amount" : {
              "value" : 7
            }
          }]
        }]
      }
    }
  },
  {
    "fullUrl" : "https://hl7-eu.github.io/unicom-ig/branches/mpd-r4b/PackagedProductDefinition-Lodipin-10mg-Capsule-GR-PPD-2802584402038",
    "resource" : {
      "resourceType" : "PackagedProductDefinition",
      "id" : "Lodipin-10mg-Capsule-GR-PPD-2802584402038",
      "meta" : {
        "profile" : ["http://unicom-project.eu/fhir/StructureDefinition/PPLPackagedProductDefinition"]
      },
      "text" : {
        "status" : "generated",
        "div" : "<div xmlns=\"http://www.w3.org/1999/xhtml\"><a name=\"PackagedProductDefinition_Lodipin-10mg-Capsule-GR-PPD-2802584402038\"> </a><p><b>Generated Narrative: PackagedProductDefinition</b><a name=\"Lodipin-10mg-Capsule-GR-PPD-2802584402038\"> </a><a name=\"hcLodipin-10mg-Capsule-GR-PPD-2802584402038\"> </a></p><div style=\"display: inline-block; background-color: #d9e0e7; padding: 6px; margin: 4px; border: 1px solid #8da1b4; border-radius: 5px; line-height: 60%\"><p style=\"margin-bottom: 0px\">Resource PackagedProductDefinition &quot;Lodipin-10mg-Capsule-GR-PPD-2802584402038&quot; </p><p style=\"margin-bottom: 0px\">Profile: <a href=\"StructureDefinition-PPLPackagedProductDefinition.html\">PPL Packaged Product profile</a></p></div><p><b>identifier</b>: <code>http://ema.europa.eu/example/pcid</code>/GR-100005016-2584402-2802584402038</p><p><b>packageFor</b>: See on this page: MedicinalProductDefinition/Lodipin-10mg-Capsule-GR-MPD</p><p><b>containedItemQuantity</b>: 30 Capsule<span style=\"background: LightGoldenRodYellow\"> (Details: https://spor.ema.europa.eu/v1/lists/200000000014 code 200000002113 = 'Capsule')</span></p><p><b>description</b>: 14 κάψουλες ή 30 κάψουλες συσκευασμένες σε 2 blister x 7 caps και 3 blister x 10 caps\nαντίστοιχα, από PVC/aluminium foil (πάνω στο οποίο είναι τυπωμένη η ημερομηνία λήξης \nτου προϊόντος και η παρτίδα του). To blister τοποθετείται σε κουτί από χαρτόνι, στο οποίο \nείναι τυπωμένα στοιχεία LOT και EXP του προϊόντος.</p><h3>MarketingStatuses</h3><table class=\"grid\"><tr><td style=\"display: none\">-</td><td><b>Country</b></td><td><b>Status</b></td></tr><tr><td style=\"display: none\">*</td><td>Hellenic Republic <span style=\"background: LightGoldenRodYellow; margin: 4px; border: 1px solid khaki\"> (<a href=\"CodeSystem-country-ema-cs.html\">Country EMA</a>#100000000406)</span></td><td>Marketed <span style=\"background: LightGoldenRodYellow; margin: 4px; border: 1px solid khaki\"> (<a href=\"CodeSystem-Marketing-Status-ema-cs.html\">Marketing Status EMA</a>#100000072083)</span></td></tr></table><blockquote><p><b>packaging</b></p><p><b>type</b>: Box <span style=\"background: LightGoldenRodYellow; margin: 4px; border: 1px solid khaki\"> (<a href=\"CodeSystem-packaging-ema-cs.html\">Packaging EMA SPOR</a>#100000073498)</span></p><p><b>quantity</b>: 1</p><p><b>material</b>: Cardboard <span style=\"background: LightGoldenRodYellow; margin: 4px; border: 1px solid khaki\"> (<a href=\"CodeSystem-material-ema-cs.html\">Material EMA</a>#200000003529)</span></p><blockquote><p><b>packaging</b></p><p><b>type</b>: Blister <span style=\"background: LightGoldenRodYellow; margin: 4px; border: 1px solid khaki\"> (<a href=\"CodeSystem-packaging-ema-cs.html\">Packaging EMA SPOR</a>#100000073496)</span></p><p><b>quantity</b>: 3</p><p><b>material</b>: PolyVinyl Chloride <span style=\"background: LightGoldenRodYellow; margin: 4px; border: 1px solid khaki\"> (<a href=\"CodeSystem-material-ema-cs.html\">Material EMA</a>#200000003222)</span>, Aluminium <span style=\"background: LightGoldenRodYellow; margin: 4px; border: 1px solid khaki\"> (<a href=\"CodeSystem-material-ema-cs.html\">Material EMA</a>#200000003200)</span></p><blockquote><p><b>containedItem</b></p></blockquote></blockquote></blockquote></div>"
      },
      "identifier" : [{
        "system" : "http://ema.europa.eu/example/pcid",
        "value" : "GR-100005016-2584402-2802584402038"
      }],
      "packageFor" : [{
        "reference" : "MedicinalProductDefinition/Lodipin-10mg-Capsule-GR-MPD"
      }],
      "containedItemQuantity" : [{
        "value" : 30,
        "unit" : "Capsule",
        "system" : "https://spor.ema.europa.eu/v1/lists/200000000014",
        "code" : "200000002113"
      }],
      "description" : "14 κάψουλες ή 30 κάψουλες συσκευασμένες σε 2 blister x 7 caps και 3 blister x 10 caps\nαντίστοιχα, από PVC/aluminium foil (πάνω στο οποίο είναι τυπωμένη η ημερομηνία λήξης \nτου προϊόντος και η παρτίδα του). To blister τοποθετείται σε κουτί από χαρτόνι, στο οποίο \nείναι τυπωμένα στοιχεία LOT και EXP του προϊόντος.",
      "marketingStatus" : [{
        "country" : {
          "coding" : [{
            "system" : "https://spor.ema.europa.eu/v1/lists/100000000002",
            "code" : "100000000406",
            "display" : "Hellenic Republic"
          }]
        },
        "status" : {
          "coding" : [{
            "system" : "https://spor.ema.europa.eu/v1/lists/100000072052",
            "code" : "100000072083",
            "display" : "Marketed"
          }]
        }
      }],
      "packaging" : {
        "type" : {
          "coding" : [{
            "system" : "https://spor.ema.europa.eu/v1/lists/100000073346",
            "code" : "100000073498",
            "display" : "Box"
          }]
        },
        "quantity" : 1,
        "material" : [{
          "coding" : [{
            "system" : "https://spor.ema.europa.eu/v1/lists/200000003199",
            "code" : "200000003529",
            "display" : "Cardboard"
          }]
        }],
        "packaging" : [{
          "type" : {
            "coding" : [{
              "system" : "https://spor.ema.europa.eu/v1/lists/100000073346",
              "code" : "100000073496",
              "display" : "Blister"
            }]
          },
          "quantity" : 3,
          "material" : [{
            "coding" : [{
              "system" : "https://spor.ema.europa.eu/v1/lists/200000003199",
              "code" : "200000003222",
              "display" : "PolyVinyl Chloride"
            }]
          },
          {
            "coding" : [{
              "system" : "https://spor.ema.europa.eu/v1/lists/200000003199",
              "code" : "200000003200",
              "display" : "Aluminium"
            }]
          }],
          "containedItem" : [{
            "item" : {
              "reference" : {
                "reference" : "ManufacturedItemDefinition/Lodipin-10mg-Capsule-GR-MID"
              }
            },
            "amount" : {
              "value" : 10
            }
          }]
        }]
      }
    }
  }]
}