{
  "resourceType" : "Bundle",
  "id" : "005-CanifugCremolum-EE-FullProduct",
  "type" : "transaction",
  "entry" : [{
    "fullUrl" : "https://hl7-eu.github.io/unicom-ig/branches/mpd-r4b/MedicinalProductDefinition/CanifugCremolum-EE-MPD",
    "resource" : {
      "resourceType" : "MedicinalProductDefinition",
      "id" : "CanifugCremolum-EE-MPD",
      "meta" : {
        "profile" : ["http://unicom-project.eu/fhir/StructureDefinition/PPLMedicinalProductDefinition"]
      },
      "text" : {
        "status" : "generated",
        "div" : "<div xmlns=\"http://www.w3.org/1999/xhtml\"><p><b>Generated Narrative: MedicinalProductDefinition</b><a name=\"CanifugCremolum-EE-MPD\"> </a></p><div style=\"display: inline-block; background-color: #d9e0e7; padding: 6px; margin: 4px; border: 1px solid #8da1b4; border-radius: 5px; line-height: 60%\"><p style=\"margin-bottom: 0px\">Resource MedicinalProductDefinition &quot;CanifugCremolum-EE-MPD&quot; </p><p style=\"margin-bottom: 0px\">Profile: <code>http://unicom-project.eu/fhir/StructureDefinition/PPLMedicinalProductDefinition</code></p></div><p><b>identifier</b>: id: EE-100004795-10280, id: EE00000003</p><p><b>domain</b>: Human use <span style=\"background: LightGoldenRodYellow; margin: 4px; border: 1px solid khaki\"> (100000000004#100000000012)</span></p><p><b>status</b>: Current <span style=\"background: LightGoldenRodYellow; margin: 4px; border: 1px solid khaki\"> (200000005003#200000005004)</span></p><p><b>combinedPharmaceuticalDoseForm</b>: Cream + pessary <span style=\"background: LightGoldenRodYellow; margin: 4px; border: 1px solid khaki\"> (200000000008#100000173972)</span></p><p><b>legalStatusOfSupply</b>: Medicinal Product subject to medical prescription <span style=\"background: LightGoldenRodYellow; margin: 4px; border: 1px solid khaki\"> (100000072051#100000072084)</span></p><p><b>classification</b>: clotrimazole <span style=\"background: LightGoldenRodYellow; margin: 4px; border: 1px solid khaki\"> (100000093533#100000095693; <a href=\"http://terminology.hl7.org/5.0.0/CodeSystem-v3-WC.html\">WHO ATC</a>#G01AF02)</span></p><blockquote><p><b>name</b></p><p><b>productName</b>: Canifug Cremolum</p><h3>NameParts</h3><table class=\"grid\"><tr><td>-</td><td><b>Part</b></td><td><b>Type</b></td></tr><tr><td>*</td><td>Canifug Cremolum</td><td>Invented name part <span style=\"background: LightGoldenRodYellow; margin: 4px; border: 1px solid khaki\"> (220000000000#220000000002)</span></td></tr></table><h3>CountryLanguages</h3><table class=\"grid\"><tr><td>-</td><td><b>Country</b></td><td><b>Language</b></td></tr><tr><td>*</td><td>Republic of Estonia <span style=\"background: LightGoldenRodYellow; margin: 4px; border: 1px solid khaki\"> (100000000002#100000000388)</span></td><td>Estonian <span style=\"background: LightGoldenRodYellow; margin: 4px; border: 1px solid khaki\"> (100000072057#100000072172)</span></td></tr></table></blockquote></div>"
      },
      "identifier" : [{
        "system" : "http://ema.europa.eu/fhir/mpId",
        "value" : "EE-100004795-10280"
      },
      {
        "system" : "http://ema.europa.eu/fhir/pmsId",
        "value" : "EE00000003"
      }],
      "domain" : {
        "coding" : [{
          "system" : "https://spor.ema.europa.eu/v1/lists/100000000004",
          "code" : "100000000012",
          "display" : "Human use"
        }]
      },
      "status" : {
        "coding" : [{
          "system" : "https://spor.ema.europa.eu/v1/lists/200000005003",
          "code" : "200000005004",
          "display" : "Current"
        }]
      },
      "combinedPharmaceuticalDoseForm" : {
        "coding" : [{
          "system" : "https://spor.ema.europa.eu/v1/lists/200000000008",
          "code" : "100000173972",
          "display" : "Cream + pessary"
        }]
      },
      "legalStatusOfSupply" : {
        "coding" : [{
          "system" : "https://spor.ema.europa.eu/v1/lists/100000072051",
          "code" : "100000072084",
          "display" : "Medicinal Product subject to medical prescription"
        }]
      },
      "classification" : [{
        "coding" : [{
          "system" : "https://spor.ema.europa.eu/v1/lists/100000093533",
          "code" : "100000095693",
          "display" : "clotrimazole"
        },
        {
          "system" : "http://www.whocc.no/atc",
          "code" : "G01AF02",
          "display" : "clotrimazole"
        }]
      }],
      "name" : [{
        "productName" : "Canifug Cremolum",
        "namePart" : [{
          "part" : "Canifug Cremolum",
          "type" : {
            "coding" : [{
              "system" : "https://spor.ema.europa.eu/v1/lists/220000000000",
              "code" : "220000000002",
              "display" : "Invented name part"
            }]
          }
        }],
        "countryLanguage" : [{
          "country" : {
            "coding" : [{
              "system" : "https://spor.ema.europa.eu/v1/lists/100000000002",
              "code" : "100000000388",
              "display" : "Republic of Estonia"
            }]
          },
          "language" : {
            "coding" : [{
              "system" : "https://spor.ema.europa.eu/v1/lists/100000072057",
              "code" : "100000072172",
              "display" : "Estonian"
            }]
          }
        }]
      }]
    },
    "request" : {
      "method" : "PUT",
      "url" : "MedicinalProductDefinition/CanifugCremolum-EE-MPD"
    }
  },
  {
    "fullUrl" : "https://hl7-eu.github.io/unicom-ig/branches/mpd-r4b/RegulatedAuthorization/CanifugCremolum-EE-RA",
    "resource" : {
      "resourceType" : "RegulatedAuthorization",
      "id" : "CanifugCremolum-EE-RA",
      "meta" : {
        "profile" : ["http://unicom-project.eu/fhir/StructureDefinition/PPLRegulatedAuthorization"]
      },
      "text" : {
        "status" : "generated",
        "div" : "<div xmlns=\"http://www.w3.org/1999/xhtml\"><p><b>Generated Narrative: RegulatedAuthorization</b><a name=\"CanifugCremolum-EE-RA\"> </a></p><div style=\"display: inline-block; background-color: #d9e0e7; padding: 6px; margin: 4px; border: 1px solid #8da1b4; border-radius: 5px; line-height: 60%\"><p style=\"margin-bottom: 0px\">Resource RegulatedAuthorization &quot;CanifugCremolum-EE-RA&quot; </p><p style=\"margin-bottom: 0px\">Profile: <code>http://unicom-project.eu/fhir/StructureDefinition/PPLRegulatedAuthorization</code></p></div><p><b>identifier</b>: id: 366201</p><p><b>subject</b>: <a href=\"#MedicinalProductDefinition_CanifugCremolum-EE-MPD\">See above (MedicinalProductDefinition/CanifugCremolum-EE-MPD)</a></p><p><b>type</b>: Marketing Authorisation <span style=\"background: LightGoldenRodYellow; margin: 4px; border: 1px solid khaki\"> (220000000060#220000000061)</span></p><p><b>region</b>: Republic of Estonia <span style=\"background: LightGoldenRodYellow; margin: 4px; border: 1px solid khaki\"> (100000000002#100000000388)</span></p><p><b>status</b>: Valid - Renewed/Varied <span style=\"background: LightGoldenRodYellow; margin: 4px; border: 1px solid khaki\"> (100000072049#200000017708)</span></p><p><b>statusDate</b>: 2011-10-19</p><p><b>holder</b>: <a href=\"Organization-LOC-100004795-Wolff-Arzneimittel.html\">Organization/LOC-100004795-Wolff-Arzneimittel</a> &quot;Dr. August Wolff GmbH &amp; Co. KG Arzneimittel&quot;</p></div>"
      },
      "identifier" : [{
        "value" : "366201"
      }],
      "subject" : [{
        "reference" : "MedicinalProductDefinition/CanifugCremolum-EE-MPD"
      }],
      "type" : {
        "coding" : [{
          "system" : "https://spor.ema.europa.eu/v1/lists/220000000060",
          "code" : "220000000061",
          "display" : "Marketing Authorisation"
        }]
      },
      "region" : [{
        "coding" : [{
          "system" : "https://spor.ema.europa.eu/v1/lists/100000000002",
          "code" : "100000000388",
          "display" : "Republic of Estonia"
        }]
      }],
      "status" : {
        "coding" : [{
          "system" : "https://spor.ema.europa.eu/v1/lists/100000072049",
          "code" : "200000017708",
          "display" : "Valid - Renewed/Varied"
        }]
      },
      "statusDate" : "2011-10-19",
      "holder" : {
        "reference" : "Organization/LOC-100004795-Wolff-Arzneimittel"
      }
    },
    "request" : {
      "method" : "PUT",
      "url" : "RegulatedAuthorization/CanifugCremolum-EE-RA"
    }
  },
  {
    "fullUrl" : "https://hl7-eu.github.io/unicom-ig/branches/mpd-r4b/AdministrableProductDefinition/CanifugCremolum-10mg1g-Cream-EE-APD",
    "resource" : {
      "resourceType" : "AdministrableProductDefinition",
      "id" : "CanifugCremolum-10mg1g-Cream-EE-APD",
      "meta" : {
        "profile" : ["http://unicom-project.eu/fhir/StructureDefinition/PPLAdministrableProductDefinition"]
      },
      "text" : {
        "status" : "generated",
        "div" : "<div xmlns=\"http://www.w3.org/1999/xhtml\"><p><b>Generated Narrative: AdministrableProductDefinition</b><a name=\"CanifugCremolum-10mg1g-Cream-EE-APD\"> </a></p><div style=\"display: inline-block; background-color: #d9e0e7; padding: 6px; margin: 4px; border: 1px solid #8da1b4; border-radius: 5px; line-height: 60%\"><p style=\"margin-bottom: 0px\">Resource AdministrableProductDefinition &quot;CanifugCremolum-10mg1g-Cream-EE-APD&quot; </p><p style=\"margin-bottom: 0px\">Profile: <code>http://unicom-project.eu/fhir/StructureDefinition/PPLAdministrableProductDefinition</code></p></div><p><b>status</b>: active</p><p><b>formOf</b>: <a href=\"#MedicinalProductDefinition_CanifugCremolum-EE-MPD\">See above (MedicinalProductDefinition/CanifugCremolum-EE-MPD)</a></p><p><b>administrableDoseForm</b>: Cream <span style=\"background: LightGoldenRodYellow; margin: 4px; border: 1px solid khaki\"> (200000000004#100000073712)</span></p><p><b>unitOfPresentation</b>: Tube <span style=\"background: LightGoldenRodYellow; margin: 4px; border: 1px solid khaki\"> (200000000014#200000002156)</span></p><p><b>producedFrom</b>: <a href=\"#ManufacturedItemDefinition_CanifugCremolum-10mg1g-Cream-EE-MID\">See above (ManufacturedItemDefinition/CanifugCremolum-10mg1g-Cream-EE-MID)</a></p><h3>RouteOfAdministrations</h3><table class=\"grid\"><tr><td>-</td><td><b>Code</b></td></tr><tr><td>*</td><td>Cutaneous use <span style=\"background: LightGoldenRodYellow; margin: 4px; border: 1px solid khaki\"> (100000073345#100000073566)</span></td></tr></table></div>"
      },
      "status" : "active",
      "formOf" : [{
        "reference" : "MedicinalProductDefinition/CanifugCremolum-EE-MPD"
      }],
      "administrableDoseForm" : {
        "coding" : [{
          "system" : "https://spor.ema.europa.eu/v1/lists/200000000004",
          "code" : "100000073712",
          "display" : "Cream"
        }]
      },
      "unitOfPresentation" : {
        "coding" : [{
          "system" : "https://spor.ema.europa.eu/v1/lists/200000000014",
          "code" : "200000002156",
          "display" : "Tube"
        }]
      },
      "producedFrom" : [{
        "reference" : "ManufacturedItemDefinition/CanifugCremolum-10mg1g-Cream-EE-MID"
      }],
      "routeOfAdministration" : [{
        "code" : {
          "coding" : [{
            "system" : "https://spor.ema.europa.eu/v1/lists/100000073345",
            "code" : "100000073566",
            "display" : "Cutaneous use"
          }]
        }
      }]
    },
    "request" : {
      "method" : "PUT",
      "url" : "AdministrableProductDefinition/CanifugCremolum-10mg1g-Cream-EE-APD"
    }
  },
  {
    "fullUrl" : "https://hl7-eu.github.io/unicom-ig/branches/mpd-r4b/AdministrableProductDefinition/CanifugCremolum-100mg-Pessary-EE-APD",
    "resource" : {
      "resourceType" : "AdministrableProductDefinition",
      "id" : "CanifugCremolum-100mg-Pessary-EE-APD",
      "meta" : {
        "profile" : ["http://unicom-project.eu/fhir/StructureDefinition/PPLAdministrableProductDefinition"]
      },
      "text" : {
        "status" : "generated",
        "div" : "<div xmlns=\"http://www.w3.org/1999/xhtml\"><p><b>Generated Narrative: AdministrableProductDefinition</b><a name=\"CanifugCremolum-100mg-Pessary-EE-APD\"> </a></p><div style=\"display: inline-block; background-color: #d9e0e7; padding: 6px; margin: 4px; border: 1px solid #8da1b4; border-radius: 5px; line-height: 60%\"><p style=\"margin-bottom: 0px\">Resource AdministrableProductDefinition &quot;CanifugCremolum-100mg-Pessary-EE-APD&quot; </p><p style=\"margin-bottom: 0px\">Profile: <code>http://unicom-project.eu/fhir/StructureDefinition/PPLAdministrableProductDefinition</code></p></div><p><b>status</b>: active</p><p><b>formOf</b>: <a href=\"#MedicinalProductDefinition_CanifugCremolum-EE-MPD\">See above (MedicinalProductDefinition/CanifugCremolum-EE-MPD)</a></p><p><b>administrableDoseForm</b>: Pessary <span style=\"background: LightGoldenRodYellow; margin: 4px; border: 1px solid khaki\"> (200000000004#100000073815)</span></p><p><b>unitOfPresentation</b>: Pessary <span style=\"background: LightGoldenRodYellow; margin: 4px; border: 1px solid khaki\"> (200000000014#200000002137)</span></p><p><b>producedFrom</b>: <a href=\"#ManufacturedItemDefinition_CanifugCremolum-100mg-Pessary-EE-MID\">See above (ManufacturedItemDefinition/CanifugCremolum-100mg-Pessary-EE-MID)</a></p><h3>RouteOfAdministrations</h3><table class=\"grid\"><tr><td>-</td><td><b>Code</b></td></tr><tr><td>*</td><td>Vaginal use <span style=\"background: LightGoldenRodYellow; margin: 4px; border: 1px solid khaki\"> (100000073345#100000073639)</span></td></tr></table></div>"
      },
      "status" : "active",
      "formOf" : [{
        "reference" : "MedicinalProductDefinition/CanifugCremolum-EE-MPD"
      }],
      "administrableDoseForm" : {
        "coding" : [{
          "system" : "https://spor.ema.europa.eu/v1/lists/200000000004",
          "code" : "100000073815",
          "display" : "Pessary"
        }]
      },
      "unitOfPresentation" : {
        "coding" : [{
          "system" : "https://spor.ema.europa.eu/v1/lists/200000000014",
          "code" : "200000002137",
          "display" : "Pessary"
        }]
      },
      "producedFrom" : [{
        "reference" : "ManufacturedItemDefinition/CanifugCremolum-100mg-Pessary-EE-MID"
      }],
      "routeOfAdministration" : [{
        "code" : {
          "coding" : [{
            "system" : "https://spor.ema.europa.eu/v1/lists/100000073345",
            "code" : "100000073639",
            "display" : "Vaginal use"
          }]
        }
      }]
    },
    "request" : {
      "method" : "PUT",
      "url" : "AdministrableProductDefinition/CanifugCremolum-100mg-Pessary-EE-APD"
    }
  },
  {
    "fullUrl" : "https://hl7-eu.github.io/unicom-ig/branches/mpd-r4b/ManufacturedItemDefinition/CanifugCremolum-10mg1g-Cream-EE-MID",
    "resource" : {
      "resourceType" : "ManufacturedItemDefinition",
      "id" : "CanifugCremolum-10mg1g-Cream-EE-MID",
      "meta" : {
        "profile" : ["http://unicom-project.eu/fhir/StructureDefinition/PPLManufacturedItemDefinition"]
      },
      "text" : {
        "status" : "generated",
        "div" : "<div xmlns=\"http://www.w3.org/1999/xhtml\"><p><b>Generated Narrative: ManufacturedItemDefinition</b><a name=\"CanifugCremolum-10mg1g-Cream-EE-MID\"> </a></p><div style=\"display: inline-block; background-color: #d9e0e7; padding: 6px; margin: 4px; border: 1px solid #8da1b4; border-radius: 5px; line-height: 60%\"><p style=\"margin-bottom: 0px\">Resource ManufacturedItemDefinition &quot;CanifugCremolum-10mg1g-Cream-EE-MID&quot; </p><p style=\"margin-bottom: 0px\">Profile: <code>http://unicom-project.eu/fhir/StructureDefinition/PPLManufacturedItemDefinition</code></p></div><p><b>status</b>: active</p><p><b>manufacturedDoseForm</b>: Cream <span style=\"background: LightGoldenRodYellow; margin: 4px; border: 1px solid khaki\"> (200000000004#100000073712)</span></p><p><b>unitOfPresentation</b>: Tube <span style=\"background: LightGoldenRodYellow; margin: 4px; border: 1px solid khaki\"> (200000000014#200000002156)</span></p></div>"
      },
      "status" : "active",
      "manufacturedDoseForm" : {
        "coding" : [{
          "system" : "https://spor.ema.europa.eu/v1/lists/200000000004",
          "code" : "100000073712",
          "display" : "Cream"
        }]
      },
      "unitOfPresentation" : {
        "coding" : [{
          "system" : "https://spor.ema.europa.eu/v1/lists/200000000014",
          "code" : "200000002156",
          "display" : "Tube"
        }]
      }
    },
    "request" : {
      "method" : "PUT",
      "url" : "ManufacturedItemDefinition/CanifugCremolum-10mg1g-Cream-EE-MID"
    }
  },
  {
    "fullUrl" : "https://hl7-eu.github.io/unicom-ig/branches/mpd-r4b/ManufacturedItemDefinition/CanifugCremolum-100mg-Pessary-EE-MID",
    "resource" : {
      "resourceType" : "ManufacturedItemDefinition",
      "id" : "CanifugCremolum-100mg-Pessary-EE-MID",
      "meta" : {
        "profile" : ["http://unicom-project.eu/fhir/StructureDefinition/PPLManufacturedItemDefinition"]
      },
      "text" : {
        "status" : "generated",
        "div" : "<div xmlns=\"http://www.w3.org/1999/xhtml\"><p><b>Generated Narrative: ManufacturedItemDefinition</b><a name=\"CanifugCremolum-100mg-Pessary-EE-MID\"> </a></p><div style=\"display: inline-block; background-color: #d9e0e7; padding: 6px; margin: 4px; border: 1px solid #8da1b4; border-radius: 5px; line-height: 60%\"><p style=\"margin-bottom: 0px\">Resource ManufacturedItemDefinition &quot;CanifugCremolum-100mg-Pessary-EE-MID&quot; </p><p style=\"margin-bottom: 0px\">Profile: <code>http://unicom-project.eu/fhir/StructureDefinition/PPLManufacturedItemDefinition</code></p></div><p><b>status</b>: active</p><p><b>manufacturedDoseForm</b>: Pessary <span style=\"background: LightGoldenRodYellow; margin: 4px; border: 1px solid khaki\"> (200000000004#100000073815)</span></p><p><b>unitOfPresentation</b>: Pessary <span style=\"background: LightGoldenRodYellow; margin: 4px; border: 1px solid khaki\"> (200000000014#200000002137)</span></p></div>"
      },
      "status" : "active",
      "manufacturedDoseForm" : {
        "coding" : [{
          "system" : "https://spor.ema.europa.eu/v1/lists/200000000004",
          "code" : "100000073815",
          "display" : "Pessary"
        }]
      },
      "unitOfPresentation" : {
        "coding" : [{
          "system" : "https://spor.ema.europa.eu/v1/lists/200000000014",
          "code" : "200000002137",
          "display" : "Pessary"
        }]
      }
    },
    "request" : {
      "method" : "PUT",
      "url" : "ManufacturedItemDefinition/CanifugCremolum-100mg-Pessary-EE-MID"
    }
  },
  {
    "fullUrl" : "https://hl7-eu.github.io/unicom-ig/branches/mpd-r4b/Ingredient/CanifugCremolum-10mg1g-Cream-EE-I",
    "resource" : {
      "resourceType" : "Ingredient",
      "id" : "CanifugCremolum-10mg1g-Cream-EE-I",
      "meta" : {
        "profile" : ["http://unicom-project.eu/fhir/StructureDefinition/PPLIngredient"]
      },
      "text" : {
        "status" : "generated",
        "div" : "<div xmlns=\"http://www.w3.org/1999/xhtml\"><p><b>Generated Narrative: Ingredient</b><a name=\"CanifugCremolum-10mg1g-Cream-EE-I\"> </a></p><div style=\"display: inline-block; background-color: #d9e0e7; padding: 6px; margin: 4px; border: 1px solid #8da1b4; border-radius: 5px; line-height: 60%\"><p style=\"margin-bottom: 0px\">Resource Ingredient &quot;CanifugCremolum-10mg1g-Cream-EE-I&quot; </p><p style=\"margin-bottom: 0px\">Profile: <code>http://unicom-project.eu/fhir/StructureDefinition/PPLIngredient</code></p></div><p><b>status</b>: active</p><p><b>for</b>: </p><ul><li><a href=\"#MedicinalProductDefinition_CanifugCremolum-EE-MPD\">See above (MedicinalProductDefinition/CanifugCremolum-EE-MPD)</a></li><li><a href=\"#ManufacturedItemDefinition_CanifugCremolum-10mg1g-Cream-EE-MID\">See above (ManufacturedItemDefinition/CanifugCremolum-10mg1g-Cream-EE-MID)</a></li><li><a href=\"#AdministrableProductDefinition_CanifugCremolum-10mg1g-Cream-EE-APD\">See above (AdministrableProductDefinition/CanifugCremolum-10mg1g-Cream-EE-APD)</a></li></ul><p><b>role</b>: Active <span style=\"background: LightGoldenRodYellow; margin: 4px; border: 1px solid khaki\"> (100000072050#100000072072)</span></p><blockquote><p><b>substance</b></p><h3>Codes</h3><table class=\"grid\"><tr><td>-</td><td><b>Concept</b></td></tr><tr><td>*</td><td>CLOTRIMAZOLE <span style=\"background: LightGoldenRodYellow; margin: 4px; border: 1px solid khaki\"> (SubstanceDefinition#100000092074)</span></td></tr></table><h3>Strengths</h3><table class=\"grid\"><tr><td>-</td><td><b>Concentration[x]</b></td></tr><tr><td>*</td><td>10 milligram(s)<span style=\"background: LightGoldenRodYellow\"> (Details: https://spor.ema.europa.eu/v1/lists/100000110633 code 100000110655 = '100000110655')</span>/1 gram(s)<span style=\"background: LightGoldenRodYellow\"> (Details: https://spor.ema.europa.eu/v1/lists/100000110633 code 100000110654 = '100000110654')</span></td></tr></table></blockquote></div>"
      },
      "status" : "active",
      "for" : [{
        "reference" : "MedicinalProductDefinition/CanifugCremolum-EE-MPD"
      },
      {
        "reference" : "ManufacturedItemDefinition/CanifugCremolum-10mg1g-Cream-EE-MID"
      },
      {
        "reference" : "AdministrableProductDefinition/CanifugCremolum-10mg1g-Cream-EE-APD"
      }],
      "role" : {
        "coding" : [{
          "system" : "https://spor.ema.europa.eu/v1/lists/100000072050",
          "code" : "100000072072",
          "display" : "Active"
        }]
      },
      "substance" : {
        "code" : {
          "concept" : {
            "coding" : [{
              "system" : "https://spor.ema.europa.eu/v2/SubstanceDefinition",
              "code" : "100000092074",
              "display" : "CLOTRIMAZOLE"
            }]
          }
        },
        "strength" : [{
          "concentrationRatio" : {
            "numerator" : {
              "value" : 10,
              "unit" : "milligram(s)",
              "system" : "https://spor.ema.europa.eu/v1/lists/100000110633",
              "code" : "100000110655"
            },
            "denominator" : {
              "value" : 1,
              "unit" : "gram(s)",
              "system" : "https://spor.ema.europa.eu/v1/lists/100000110633",
              "code" : "100000110654"
            }
          }
        }]
      }
    },
    "request" : {
      "method" : "PUT",
      "url" : "Ingredient/CanifugCremolum-10mg1g-Cream-EE-I"
    }
  },
  {
    "fullUrl" : "https://hl7-eu.github.io/unicom-ig/branches/mpd-r4b/Ingredient/CanifugCremolum-100mg-Pessary-EE-I",
    "resource" : {
      "resourceType" : "Ingredient",
      "id" : "CanifugCremolum-100mg-Pessary-EE-I",
      "meta" : {
        "profile" : ["http://unicom-project.eu/fhir/StructureDefinition/PPLIngredient"]
      },
      "text" : {
        "status" : "generated",
        "div" : "<div xmlns=\"http://www.w3.org/1999/xhtml\"><p><b>Generated Narrative: Ingredient</b><a name=\"CanifugCremolum-100mg-Pessary-EE-I\"> </a></p><div style=\"display: inline-block; background-color: #d9e0e7; padding: 6px; margin: 4px; border: 1px solid #8da1b4; border-radius: 5px; line-height: 60%\"><p style=\"margin-bottom: 0px\">Resource Ingredient &quot;CanifugCremolum-100mg-Pessary-EE-I&quot; </p><p style=\"margin-bottom: 0px\">Profile: <code>http://unicom-project.eu/fhir/StructureDefinition/PPLIngredient</code></p></div><p><b>status</b>: active</p><p><b>for</b>: </p><ul><li><a href=\"#MedicinalProductDefinition_CanifugCremolum-EE-MPD\">See above (MedicinalProductDefinition/CanifugCremolum-EE-MPD)</a></li><li><a href=\"#ManufacturedItemDefinition_CanifugCremolum-100mg-Pessary-EE-MID\">See above (ManufacturedItemDefinition/CanifugCremolum-100mg-Pessary-EE-MID)</a></li><li><a href=\"#AdministrableProductDefinition_CanifugCremolum-100mg-Pessary-EE-APD\">See above (AdministrableProductDefinition/CanifugCremolum-100mg-Pessary-EE-APD)</a></li></ul><p><b>role</b>: Active <span style=\"background: LightGoldenRodYellow; margin: 4px; border: 1px solid khaki\"> (100000072050#100000072072)</span></p><blockquote><p><b>substance</b></p><h3>Codes</h3><table class=\"grid\"><tr><td>-</td><td><b>Concept</b></td></tr><tr><td>*</td><td>CLOTRIMAZOLE <span style=\"background: LightGoldenRodYellow; margin: 4px; border: 1px solid khaki\"> (SubstanceDefinition#100000092074)</span></td></tr></table><h3>Strengths</h3><table class=\"grid\"><tr><td>-</td><td><b>Presentation[x]</b></td></tr><tr><td>*</td><td>100 milligram(s)<span style=\"background: LightGoldenRodYellow\"> (Details: https://spor.ema.europa.eu/v1/lists/100000110633 code 100000110655 = '100000110655')</span>/1 Pessary<span style=\"background: LightGoldenRodYellow\"> (Details: https://spor.ema.europa.eu/v1/lists/200000000014 code 200000002137 = '200000002137')</span></td></tr></table></blockquote></div>"
      },
      "status" : "active",
      "for" : [{
        "reference" : "MedicinalProductDefinition/CanifugCremolum-EE-MPD"
      },
      {
        "reference" : "ManufacturedItemDefinition/CanifugCremolum-100mg-Pessary-EE-MID"
      },
      {
        "reference" : "AdministrableProductDefinition/CanifugCremolum-100mg-Pessary-EE-APD"
      }],
      "role" : {
        "coding" : [{
          "system" : "https://spor.ema.europa.eu/v1/lists/100000072050",
          "code" : "100000072072",
          "display" : "Active"
        }]
      },
      "substance" : {
        "code" : {
          "concept" : {
            "coding" : [{
              "system" : "https://spor.ema.europa.eu/v2/SubstanceDefinition",
              "code" : "100000092074",
              "display" : "CLOTRIMAZOLE"
            }]
          }
        },
        "strength" : [{
          "presentationRatio" : {
            "numerator" : {
              "value" : 100,
              "unit" : "milligram(s)",
              "system" : "https://spor.ema.europa.eu/v1/lists/100000110633",
              "code" : "100000110655"
            },
            "denominator" : {
              "value" : 1,
              "unit" : "Pessary",
              "system" : "https://spor.ema.europa.eu/v1/lists/200000000014",
              "code" : "200000002137"
            }
          }
        }]
      }
    },
    "request" : {
      "method" : "PUT",
      "url" : "Ingredient/CanifugCremolum-100mg-Pessary-EE-I"
    }
  },
  {
    "fullUrl" : "https://hl7-eu.github.io/unicom-ig/branches/mpd-r4b/PackagedProductDefinition/CanifugCremolum-EE-PPD-1033692",
    "resource" : {
      "resourceType" : "PackagedProductDefinition",
      "id" : "CanifugCremolum-EE-PPD-1033692",
      "meta" : {
        "profile" : ["http://unicom-project.eu/fhir/StructureDefinition/PPLPackagedProductDefinition"]
      },
      "text" : {
        "status" : "generated",
        "div" : "<div xmlns=\"http://www.w3.org/1999/xhtml\"><p><b>Generated Narrative: PackagedProductDefinition</b><a name=\"CanifugCremolum-EE-PPD-1033692\"> </a></p><div style=\"display: inline-block; background-color: #d9e0e7; padding: 6px; margin: 4px; border: 1px solid #8da1b4; border-radius: 5px; line-height: 60%\"><p style=\"margin-bottom: 0px\">Resource PackagedProductDefinition &quot;CanifugCremolum-EE-PPD-1033692&quot; </p><p style=\"margin-bottom: 0px\">Profile: <code>http://unicom-project.eu/fhir/StructureDefinition/PPLPackagedProductDefinition</code></p></div><p><b>identifier</b>: id: EE-100004795-10280-1033692</p><p><b>packageFor</b>: <a href=\"#MedicinalProductDefinition_CanifugCremolum-EE-MPD\">See above (MedicinalProductDefinition/CanifugCremolum-EE-MPD)</a></p><p><b>containedItemQuantity</b>: 6 Pessary<span style=\"background: LightGoldenRodYellow\"> (Details: https://spor.ema.europa.eu/v1/lists/200000000014 code 200000002137 = '200000002137')</span>, 1 Tube<span style=\"background: LightGoldenRodYellow\"> (Details: https://spor.ema.europa.eu/v1/lists/200000000014 code 200000002156 = '200000002156')</span></p><p><b>description</b>: Alu/PE-fooliumist valmistatud ribapakend, mis on asetatud väliskarpi. Kreem on alumiiniumtuubis ja omakorda pappkarbis. Kombineeritud pakend sisaldab: 6 vaginaalsuposiiti ja 20 g kreemi</p><h3>MarketingStatuses</h3><table class=\"grid\"><tr><td>-</td><td><b>Country</b></td><td><b>Status</b></td></tr><tr><td>*</td><td>Republic of Estonia <span style=\"background: LightGoldenRodYellow; margin: 4px; border: 1px solid khaki\"> (100000000002#100000000388)</span></td><td>Marketed <span style=\"background: LightGoldenRodYellow; margin: 4px; border: 1px solid khaki\"> (100000072052#100000072083)</span></td></tr></table><blockquote><p><b>package</b></p><p><b>type</b>: Box <span style=\"background: LightGoldenRodYellow; margin: 4px; border: 1px solid khaki\"> (100000073346#100000073498)</span></p><p><b>quantity</b>: 1</p><p><b>material</b>: Cardboard <span style=\"background: LightGoldenRodYellow; margin: 4px; border: 1px solid khaki\"> (200000003199#200000003529)</span></p><blockquote><p><b>package</b></p><p><b>type</b>: Strip <span style=\"background: LightGoldenRodYellow; margin: 4px; border: 1px solid khaki\"> (100000073346#100000073559)</span></p><p><b>quantity</b>: 1</p><p><b>material</b>: Aluminium <span style=\"background: LightGoldenRodYellow; margin: 4px; border: 1px solid khaki\"> (200000003199#200000003200)</span>, PolyEthylene <span style=\"background: LightGoldenRodYellow; margin: 4px; border: 1px solid khaki\"> (200000003199#200000003214)</span></p></blockquote><blockquote><p><b>package</b></p><p><b>type</b>: Tube <span style=\"background: LightGoldenRodYellow; margin: 4px; border: 1px solid khaki\"> (100000073346#100000073346)</span></p><p><b>quantity</b>: 1</p><p><b>material</b>: Aluminium <span style=\"background: LightGoldenRodYellow; margin: 4px; border: 1px solid khaki\"> (200000003199#200000003200)</span></p></blockquote></blockquote></div>"
      },
      "identifier" : [{
        "system" : "http://ema.europa.eu/example/pcid",
        "value" : "EE-100004795-10280-1033692"
      }],
      "packageFor" : [{
        "reference" : "MedicinalProductDefinition/CanifugCremolum-EE-MPD"
      }],
      "containedItemQuantity" : [{
        "value" : 6,
        "unit" : "Pessary",
        "system" : "https://spor.ema.europa.eu/v1/lists/200000000014",
        "code" : "200000002137"
      },
      {
        "value" : 1,
        "unit" : "Tube",
        "system" : "https://spor.ema.europa.eu/v1/lists/200000000014",
        "code" : "200000002156"
      }],
      "description" : "Alu/PE-fooliumist valmistatud ribapakend, mis on asetatud väliskarpi. Kreem on alumiiniumtuubis ja omakorda pappkarbis. Kombineeritud pakend sisaldab: 6 vaginaalsuposiiti ja 20 g kreemi",
      "marketingStatus" : [{
        "country" : {
          "coding" : [{
            "system" : "https://spor.ema.europa.eu/v1/lists/100000000002",
            "code" : "100000000388",
            "display" : "Republic of Estonia"
          }]
        },
        "status" : {
          "coding" : [{
            "system" : "https://spor.ema.europa.eu/v1/lists/100000072052",
            "code" : "100000072083",
            "display" : "Marketed"
          }]
        }
      }],
      "package" : {
        "type" : {
          "coding" : [{
            "system" : "https://spor.ema.europa.eu/v1/lists/100000073346",
            "code" : "100000073498",
            "display" : "Box"
          }]
        },
        "quantity" : 1,
        "material" : [{
          "coding" : [{
            "system" : "https://spor.ema.europa.eu/v1/lists/200000003199",
            "code" : "200000003529",
            "display" : "Cardboard"
          }]
        }],
        "package" : [{
          "type" : {
            "coding" : [{
              "system" : "https://spor.ema.europa.eu/v1/lists/100000073346",
              "code" : "100000073559",
              "display" : "Strip"
            }]
          },
          "quantity" : 1,
          "material" : [{
            "coding" : [{
              "system" : "https://spor.ema.europa.eu/v1/lists/200000003199",
              "code" : "200000003200",
              "display" : "Aluminium"
            }]
          },
          {
            "coding" : [{
              "system" : "https://spor.ema.europa.eu/v1/lists/200000003199",
              "code" : "200000003214",
              "display" : "PolyEthylene"
            }]
          }],
          "containedItem" : [{
            "item" : {
              "reference" : {
                "reference" : "ManufacturedItemDefinition/CanifugCremolum-100mg-Pessary-EE-MID"
              }
            },
            "amount" : {
              "value" : 6
            }
          }]
        },
        {
          "type" : {
            "coding" : [{
              "system" : "https://spor.ema.europa.eu/v1/lists/100000073346",
              "code" : "100000073346",
              "display" : "Tube"
            }]
          },
          "quantity" : 1,
          "material" : [{
            "coding" : [{
              "system" : "https://spor.ema.europa.eu/v1/lists/200000003199",
              "code" : "200000003200",
              "display" : "Aluminium"
            }]
          }],
          "containedItem" : [{
            "item" : {
              "reference" : {
                "reference" : "ManufacturedItemDefinition/CanifugCremolum-10mg1g-Cream-EE-MID"
              }
            },
            "amount" : {
              "value" : 20,
              "unit" : "gram(s)",
              "system" : "https://spor.ema.europa.eu/v1/lists/100000110633",
              "code" : "100000110654"
            }
          }]
        }]
      }
    },
    "request" : {
      "method" : "PUT",
      "url" : "PackagedProductDefinition/CanifugCremolum-EE-PPD-1033692"
    }
  }]
}