{
  "id": "Vendal-retard-60mg-Prolonged-release-tablet-EE-MPD-BBDL",
  "type": "transaction",
  "resourceType": "Bundle",
  "entry": [
    {
      "resource": {
        "resourceType": "MedicinalProductDefinition",
        "id": "Vendal-retard-60mg-Prolonged-release-tablet-EE-MPD",
        "meta": {
          "versionId": "1",
          "lastUpdated": "2022-08-14T20:48:06.876+00:00"
        },
        "extension": [
          {
            "url": "http://ema.europa.eu/fhir/extension/authorisedDoseForm",
            "valueCoding": {
              "system": "http://spor.ema.europa.eu/v1/lists/200000000004",
              "code": "100000073683",
              "display": "Prolonged-release tablet"
            }
          }
        ],
        "identifier": [
          {
            "system": "http://ema.europa.eu/fhir/mpId",
            "value": "EE-100004168-10553"
          }
        ],
        "domain": {
          "coding": [
            {
              "system": "http://spor.ema.europa.eu/v1/lists/100000000004",
              "code": "100000000033",
              "display": "Human use"
            }
          ]
        },
        "status": {
          "coding": [
            {
              "system": "http://spor.ema.europa.eu/v1/lists/200000005003",
              "code": "200000005004",
              "display": "Current"
            }
          ]
        },
        "legalStatusOfSupply": {
          "coding": [
            {
              "system": "http://spor.ema.europa.eu/v1/lists/100000072051",
              "code": "100000072084",
              "display": "Medicinal product subject to medical prescription"
            }
          ]
        },
        "classification": [
          {
            "coding": [
              {
                "system": "http://spor.ema.europa.eu/v1/lists/100000093533",
                "code": "100000097139",
                "display": "Morphine"
              },
              {
                "system": "http://www.whocc.no/atc",
                "code": "N02AA01",
                "display": "Morphine"
              }
            ]
          }
        ],
        "name": [
          {
            "productName": "Vendal retard 60 mg toimeainet prolongeeritult vabastavad tabletid",
            "namePart": [
              {
                "part": "Vendal retard",
                "type": {
                  "coding": [
                    {
                      "system": "http://spor.ema.europa.eu/v1/lists/220000000000",
                      "code": "220000000002",
                      "display": "Invented Name Part"
                    }
                  ]
                }
              },
              {
                "part": "60 mg",
                "type": {
                  "coding": [
                    {
                      "system": "http://spor.ema.europa.eu/v1/lists/220000000000",
                      "code": "220000000004",
                      "display": "Strength part"
                    }
                  ]
                }
              },
              {
                "part": "toimeainet prolongeeritult vabastavad tabletid",
                "type": {
                  "coding": [
                    {
                      "system": "http://spor.ema.europa.eu/v1/lists/220000000000",
                      "code": "220000000005",
                      "display": "Pharmaceutical dose form part"
                    }
                  ]
                }
              }
            ],
            "countryLanguage": [
              {
                "country": {
                  "coding": [
                    {
                      "system": "http://spor.ema.europa.eu/v1/lists/100000000002",
                      "code": "100000000388",
                      "display": "Republic of Estonia"
                    }
                  ]
                },
                "language": {
                  "coding": [
                    {
                      "system": "http://spor.ema.europa.eu/v1/lists/100000072057",
                      "code": "100000072172",
                      "display": "Estonian"
                    }
                  ]
                }
              }
            ]
          }
        ]
      },
      "request": {
        "method": "PUT",
        "url": "MedicinalProductDefinition/Vendal-retard-60mg-Prolonged-release-tablet-EE-MPD"
      },
      "fullUrl": "https://hl7-eu.github.io/unicom-ig/branches/mpd-r4b/MedicinalProductDefinition/Vendal-retard-60mg-Prolonged-release-tablet-EE-MPD"
    },
    {
      "resource": {
        "resourceType": "RegulatedAuthorization",
        "id": "Vendal-retard-60mg-Prolonged-release-tablet-EE-RA",
        "meta": {
          "versionId": "1",
          "lastUpdated": "2022-08-14T20:48:06.913+00:00"
        },
        "identifier": [
          {
            "system": "http://ema.europa.eu/fhir/MarketingAuthorizationNumber",
            "value": "265099"
          }
        ],
        "subject": [
          {
            "reference": "MedicinalProductDefinition/Vendal-retard-60mg-Prolonged-release-tablet-EE-MPD"
          }
        ],
        "type": {
          "coding": [
            {
              "system": "http://spor.ema.europa.eu/v1/lists/220000000060",
              "code": "220000000061",
              "display": "Marketing Authorisation"
            }
          ]
        },
        "region": [
          {
            "coding": [
              {
                "system": "http://spor.ema.europa.eu/v1/lists/100000000002",
                "code": "100000000388",
                "display": "Republic of Estonia"
              }
            ]
          }
        ],
        "status": {
          "coding": [
            {
              "system": "http://spor.ema.europa.eu/v1/lists/100000072049",
              "code": "200000017708",
              "display": "Valid - Renewed/Varied"
            }
          ]
        },
        "statusDate": "2014-06-27",
        "holder": {
          "identifier": {
            "system": "https://spor.ema.europa.eu/v1/locations",
            "value": "LOC-100004168"
          },
          "display": "G.L. Pharma GmbH"
        }
      },
      "request": {
        "method": "PUT",
        "url": "RegulatedAuthorization/Vendal-retard-60mg-Prolonged-release-tablet-EE-RA"
      },
      "fullUrl": "https://hl7-eu.github.io/unicom-ig/branches/mpd-r4b/RegulatedAuthorization/Vendal-retard-60mg-Prolonged-release-tablet-EE-RA"
    },
    {
      "resource": {
        "resourceType": "PackagedProductDefinition",
        "id": "Vendal-retard-60mg-Prolonged-release-tablet-EE-PPD-1035739",
        "meta": {
          "versionId": "1",
          "lastUpdated": "2022-08-14T20:48:06.963+00:00"
        },
        "extension": [
          {
            "url": "http://hl7.org/fhir/5.0/StructureDefinition/extension-PackagedProductDefinition.containedItemQuantity",
            "valueQuantity": {
              "value": 120,
              "unit": "tablet",
              "system": "http://spor.ema.europa.eu/v1/lists/200000000014",
              "code": "200000002152"
            }
          }
        ],
        "identifier": [
          {
            "system": "http://ema.europa.eu/example/pcid",
            "value": "EE-100004168-10553-1035739"
          }
        ],
        "packageFor": [
          {
            "reference": "MedicinalProductDefinition/Vendal-retard-60mg-Prolonged-release-tablet-EE-MPD"
          }
        ],
        "description": "Pakendi t\u00fc\u00fcp: blister (PVC ja alumiiniumfoolium). Pakendi suurus: karbis 30 tabletti.",
        "_description": {
          "extension": [
            {
              "url": "http://ema.europa.eu/fhir/extension/language",
              "valueCoding": {
                "system": "http://spor.ema.europa.eu/v1/lists/100000072057",
                "code": "100000072172",
                "display": "Estonian"
              }
            }
          ]
        },
        "marketingStatus": [
          {
            "country": {
              "coding": [
                {
                  "system": "http://spor.ema.europa.eu/v1/lists/100000000002",
                  "code": "100000000388",
                  "display": "Republic of Estonia"
                }
              ]
            },
            "status": {
              "coding": [
                {
                  "system": "http://spor.ema.europa.eu/v1/lists/100000072052",
                  "code": "100000072083",
                  "display": "Marketed"
                }
              ]
            }
          }
        ],
        "package": {
          "type": {
            "coding": [
              {
                "system": "https://spor.ema.europa.eu/v1/lists/100000073346",
                "code": "100000073498",
                "display": "Box"
              }
            ]
          },
          "quantity": 1,
          "material": [
            {
              "coding": [
                {
                  "system": "https://spor.ema.europa.eu/v1/lists/200000003199",
                  "code": "200000003529",
                  "display": "Cardboard"
                }
              ]
            }
          ],
          "package": [
            {
              "type": {
                "coding": [
                  {
                    "system": "https://spor.ema.europa.eu/v1/lists/100000073346",
                    "code": "100000073496",
                    "display": "Blister"
                  }
                ]
              },
              "quantity": 1,
              "material": [
                {
                  "coding": [
                    {
                      "system": "https://spor.ema.europa.eu/v1/lists/200000003199",
                      "code": "200000003200",
                      "display": "Aluminium"
                    }
                  ]
                },
                {
                  "coding": [
                    {
                      "system": "https://spor.ema.europa.eu/v1/lists/200000003199",
                      "code": "200000003222",
                      "display": "PolyVinyl Chloride"
                    }
                  ]
                }
              ],
              "containedItem": [
                {
                  "item": {
                    "reference": {
                      "reference": "ManufacturedItemDefinition/Vendal-retard-60mg-Prolonged-release-tablet-EE-MID"
                    }
                  },
                  "amount": {
                    "value": 30
                  }
                }
              ]
            }
          ]
        }
      },
      "request": {
        "method": "PUT",
        "url": "PackagedProductDefinition/Vendal-retard-60mg-Prolonged-release-tablet-EE-PPD-1035739"
      },
      "fullUrl": "https://hl7-eu.github.io/unicom-ig/branches/mpd-r4b/PackagedProductDefinition/Vendal-retard-60mg-Prolonged-release-tablet-EE-PPD-1035739"
    },
    {
      "resource": {
        "resourceType": "ManufacturedItemDefinition",
        "id": "Vendal-retard-60mg-Prolonged-release-tablet-EE-MID",
        "meta": {
          "versionId": "1",
          "lastUpdated": "2022-08-14T20:48:06.938+00:00"
        },
        "status": "active",
        "manufacturedDoseForm": {
          "coding": [
            {
              "system": "https://spor.ema.europa.eu/v1/lists/200000000004",
              "code": "100000073683",
              "display": "Prolonged-release tablet"
            }
          ]
        },
        "unitOfPresentation": {
          "coding": [
            {
              "system": "https://spor.ema.europa.eu/v1/lists/200000000014",
              "code": "200000002152",
              "display": "Tablet"
            }
          ]
        }
      },
      "request": {
        "method": "PUT",
        "url": "ManufacturedItemDefinition/Vendal-retard-60mg-Prolonged-release-tablet-EE-MID"
      },
      "fullUrl": "https://hl7-eu.github.io/unicom-ig/branches/mpd-r4b/ManufacturedItemDefinition/Vendal-retard-60mg-Prolonged-release-tablet-EE-MID"
    },
    {
      "resource": {
        "resourceType": "Ingredient",
        "id": "Vendal-retard-60mg-Prolonged-release-tablet-EE-I",
        "meta": {
          "versionId": "1",
          "lastUpdated": "2022-08-14T20:48:06.948+00:00"
        },
        "status": "active",
        "for": [
          {
            "reference": "MedicinalProductDefinition/Vendal-retard-60mg-Prolonged-release-tablet-EE-MPD"
          },
          {
            "reference": "ManufacturedItemDefinition/Vendal-retard-60mg-Prolonged-release-tablet-EE-MID"
          },
          {
            "reference": "AdministrableProductDefinition/Vendal-retard-60mg-Prolonged-release-tablet-EE-APD"
          }
        ],
        "role": {
          "coding": [
            {
              "system": "http://spor.ema.europa.eu/v1/lists/100000072050",
              "code": "100000072072",
              "display": "Active"
            }
          ]
        },
        "substance": {
          "code": {
            "concept": {
              "coding": [
                {
                  "system": "http://spor.azure-api.net/sms/api/v2/SubstanceDefinition",
                  "code": "100000090494",
                  "display": "Morphine hydrochloride"
                }
              ]
            }
          },
          "strength": [
            {
              "presentationRatio": {
                "numerator": {
                  "value": 60,
                  "_comparator": {
                    "extension": [
                      {
                        "url": "http://ema.europa.eu/fhir/extension/comparator",
                        "valueCoding": {
                          "system": "https://spor.ema.europa.eu/v1/lists/100000000008",
                          "code": "100000000049",
                          "display": "equal to"
                        }
                      }
                    ]
                  },
                  "unit": "milligram(s)",
                  "system": "https://spor.ema.europa.eu/v1/lists/100000110633",
                  "code": "100000110655"
                },
                "denominator": {
                  "value": 1,
                  "unit": "tablet",
                  "system": "https://spor.ema.europa.eu/v1/lists/200000000014",
                  "code": "200000002152"
                }
              },
              "referenceStrength": [
                {
                  "substance": {
                    "concept": {
                      "coding": [
                        {
                          "system": "https://spor.ema.europa.eu/v2/SubstanceDefinition",
                          "code": "100000091372",
                          "display": "Morphine"
                        }
                      ]
                    }
                  },
                  "strengthRatio": {
                    "numerator": {
                      "value": 45.6,
                      "_comparator": {
                        "extension": [
                          {
                            "url": "http://ema.europa.eu/fhir/extension/comparator",
                            "valueCoding": {
                              "system": "https://spor.ema.europa.eu/v1/lists/100000000008",
                              "code": "100000000049",
                              "display": "equal to"
                            }
                          }
                        ]
                      },
                      "unit": "milligram(s)",
                      "system": "https://spor.ema.europa.eu/v1/lists/100000110633",
                      "code": "100000110655"
                    },
                    "denominator": {
                      "value": 1,
                      "unit": "tablet",
                      "system": "https://spor.ema.europa.eu/v1/lists/200000000014",
                      "code": "200000002152"
                    }
                  }
                }
              ]
            }
          ]
        }
      },
      "request": {
        "method": "PUT",
        "url": "Ingredient/Vendal-retard-60mg-Prolonged-release-tablet-EE-I"
      },
      "fullUrl": "https://hl7-eu.github.io/unicom-ig/branches/mpd-r4b/Ingredient/Vendal-retard-60mg-Prolonged-release-tablet-EE-I"
    }
  ]
}