{
  "resourceType": "Bundle",
  "id": "004-Cefuroxime-MIP-1500mg-EE-FullProduct",
  "type": "transaction",
  "entry": [
    {
      "resource": {
        "resourceType": "MedicinalProductDefinition",
        "id": "Cefuroxime-MIP-1500mg-EE-MPD",
        "meta": {
          "profile": [
            "http://unicom-project.eu/fhir/StructureDefinition/PPLMedicinalProductDefinition"
          ]
        },
        "text": {
          "status": "generated",
          "div": "<div xmlns=\"http://www.w3.org/1999/xhtml\"><p><b>Generated Narrative: MedicinalProductDefinition</b><a name=\"Cefuroxime-MIP-1500mg-EE-MPD\"> </a></p><div style=\"display: inline-block; background-color: #d9e0e7; padding: 6px; margin: 4px; border: 1px solid #8da1b4; border-radius: 5px; line-height: 60%\"><p style=\"margin-bottom: 0px\">Resource MedicinalProductDefinition &quot;Cefuroxime-MIP-1500mg-EE-MPD&quot; </p><p style=\"margin-bottom: 0px\">Profile: <a href=\"StructureDefinition-PPLMedicinalProductDefinition.html\">PPL Medicinal Product profile</a></p></div><p><b>identifier</b>: id: EE-100009199-27834, id: EE0000002</p><p><b>domain</b>: Human use <span style=\"background: LightGoldenRodYellow; margin: 4px; border: 1px solid khaki\"> (100000000004#100000000012)</span></p><p><b>status</b>: Current <span style=\"background: LightGoldenRodYellow; margin: 4px; border: 1px solid khaki\"> (200000005003#200000005004)</span></p><p><b>combinedPharmaceuticalDoseForm</b>: Powder for solution for injection/infusion <span style=\"background: LightGoldenRodYellow; margin: 4px; border: 1px solid khaki\"> (<a href=\"CodeSystem-pharmaceutical-dose-form-ema-cs.html\">Pharmaceutical Dose Form EMA</a>#100000116186)</span></p><p><b>legalStatusOfSupply</b>: Medicinal Product subject to medical prescription <span style=\"background: LightGoldenRodYellow; margin: 4px; border: 1px solid khaki\"> (100000072051#100000072084)</span></p><p><b>classification</b>: Cefuroxime <span style=\"background: LightGoldenRodYellow; margin: 4px; border: 1px solid khaki\"> (100000093533#100000096183; <a href=\"http://terminology.hl7.org/4.0.0/CodeSystem-v3-WC.html\">WHO ATC</a>#J01DC02 &quot;cefuroxime&quot;)</span></p><blockquote><p><b>name</b></p><p><b>productName</b>: Cefuroxime MIP 1500 mg, süste-/infusioonilahuse pulber</p><blockquote><p><b>namePart</b></p><p><b>part</b>: Cefuroxime MIP</p><p><b>type</b>: Invented name part <span style=\"background: LightGoldenRodYellow; margin: 4px; border: 1px solid khaki\"> (220000000000#220000000002)</span></p></blockquote><blockquote><p><b>namePart</b></p><p><b>part</b>: 1500 MG</p><p><b>type</b>: Strength part <span style=\"background: LightGoldenRodYellow; margin: 4px; border: 1px solid khaki\"> (220000000000#220000000004)</span></p></blockquote><h3>CountryLanguages</h3><table class=\"grid\"><tr><td>-</td><td><b>Country</b></td><td><b>Language</b></td></tr><tr><td>*</td><td>Republic of Estonia <span style=\"background: LightGoldenRodYellow; margin: 4px; border: 1px solid khaki\"> (100000000002#100000000388)</span></td><td>Estonian <span style=\"background: LightGoldenRodYellow; margin: 4px; border: 1px solid khaki\"> (100000072057#100000072172)</span></td></tr></table></blockquote></div>"
        },
        "identifier": [
          {
            "system": "http://ema.europa.eu/fhir/mpId",
            "value": "EE-100009199-27834"
          },
          {
            "system": "http://ema.europa.eu/fhir/pmsId",
            "value": "EE0000002"
          }
        ],
        "domain": {
          "coding": [
            {
              "system": "http://spor.ema.europa.eu/v1/lists/100000000004",
              "code": "100000000012",
              "display": "Human use"
            }
          ]
        },
        "status": {
          "coding": [
            {
              "system": "http://spor.ema.europa.eu/v1/lists/200000005003",
              "code": "200000005004",
              "display": "Current"
            }
          ]
        },
        "combinedPharmaceuticalDoseForm": {
          "coding": [
            {
              "system": "http://spor.ema.europa.eu/v1/lists/200000000004",
              "code": "100000116186",
              "display": "Powder for solution for injection/infusion"
            }
          ]
        },
        "legalStatusOfSupply": {
          "coding": [
            {
              "system": "http://spor.ema.europa.eu/v1/lists/100000072051",
              "code": "100000072084",
              "display": "Medicinal Product subject to medical prescription"
            }
          ]
        },
        "classification": [
          {
            "coding": [
              {
                "system": "http://spor.ema.europa.eu/v1/lists/100000093533",
                "code": "100000096183",
                "display": "Cefuroxime"
              },
              {
                "system": "http://www.whocc.no/atc",
                "code": "J01DC02",
                "display": "cefuroxime"
              }
            ]
          }
        ],
        "name": [
          {
            "productName": "Cefuroxime MIP 1500 mg, süste-/infusioonilahuse pulber",
            "namePart": [
              {
                "part": "Cefuroxime MIP",
                "type": {
                  "coding": [
                    {
                      "system": "http://spor.ema.europa.eu/v1/lists/220000000000",
                      "code": "220000000002",
                      "display": "Invented name part"
                    }
                  ]
                }
              },
              {
                "part": "1500 MG",
                "type": {
                  "coding": [
                    {
                      "system": "http://spor.ema.europa.eu/v1/lists/220000000000",
                      "code": "220000000004",
                      "display": "Strength part"
                    }
                  ]
                }
              }
            ],
            "countryLanguage": [
              {
                "country": {
                  "coding": [
                    {
                      "system": "http://spor.ema.europa.eu/v1/lists/100000000002",
                      "code": "100000000388",
                      "display": "Republic of Estonia"
                    }
                  ]
                },
                "language": {
                  "coding": [
                    {
                      "system": "http://spor.ema.europa.eu/v1/lists/100000072057",
                      "code": "100000072172",
                      "display": "Estonian"
                    }
                  ]
                }
              }
            ]
          }
        ]
      },
      "request": {
        "method": "PUT",
        "url": "MedicinalProductDefinition/Cefuroxime-MIP-1500mg-EE-MPD"
      }
    },
    {
      "resource": {
        "resourceType": "RegulatedAuthorization",
        "id": "Cefuroxime-MIP-1500mg-EE-RA",
        "meta": {
          "profile": [
            "http://unicom-project.eu/fhir/StructureDefinition/PPLRegulatedAuthorization"
          ]
        },
        "text": {
          "status": "generated",
          "div": "<div xmlns=\"http://www.w3.org/1999/xhtml\"><p><b>Generated Narrative: RegulatedAuthorization</b><a name=\"Cefuroxime-MIP-1500mg-EE-RA\"> </a></p><div style=\"display: inline-block; background-color: #d9e0e7; padding: 6px; margin: 4px; border: 1px solid #8da1b4; border-radius: 5px; line-height: 60%\"><p style=\"margin-bottom: 0px\">Resource RegulatedAuthorization &quot;Cefuroxime-MIP-1500mg-EE-RA&quot; </p><p style=\"margin-bottom: 0px\">Profile: <a href=\"StructureDefinition-PPLRegulatedAuthorization.html\">PPL Marketing Authorisation profile</a></p></div><p><b>identifier</b>: id: 805813</p><p><b>subject</b>: <a href=\"#MedicinalProductDefinition_Cefuroxime-MIP-1500mg-EE-MPD\">See above (MedicinalProductDefinition/Cefuroxime-MIP-1500mg-EE-MPD)</a></p><p><b>type</b>: Marketing Authorisation <span style=\"background: LightGoldenRodYellow; margin: 4px; border: 1px solid khaki\"> (220000000060#220000000061)</span></p><p><b>region</b>: Republic of Estonia <span style=\"background: LightGoldenRodYellow; margin: 4px; border: 1px solid khaki\"> (100000000002#100000000388)</span></p><p><b>status</b>: Valid - Renewed/Varied <span style=\"background: LightGoldenRodYellow; margin: 4px; border: 1px solid khaki\"> (100000072049#200000017708)</span></p><p><b>statusDate</b>: 2017-12-06</p><p><b>holder</b>: <a href=\"Organization-LOC-100009199-Mip.html\">Organization/LOC-100009199-Mip</a> &quot;Mip Pharma GmbH&quot;</p></div>"
        },
        "identifier": [
          {
            "value": "805813"
          }
        ],
        "subject": [
          {
            "reference": "MedicinalProductDefinition/Cefuroxime-MIP-1500mg-EE-MPD"
          }
        ],
        "type": {
          "coding": [
            {
              "system": "http://spor.ema.europa.eu/v1/lists/220000000060",
              "code": "220000000061",
              "display": "Marketing Authorisation"
            }
          ]
        },
        "region": [
          {
            "coding": [
              {
                "system": "http://spor.ema.europa.eu/v1/lists/100000000002",
                "code": "100000000388",
                "display": "Republic of Estonia"
              }
            ]
          }
        ],
        "status": {
          "coding": [
            {
              "system": "http://spor.ema.europa.eu/v1/lists/100000072049",
              "code": "200000017708",
              "display": "Valid - Renewed/Varied"
            }
          ]
        },
        "statusDate": "2017-12-06",
        "holder": {
          "reference": "Organization/LOC-100009199-Mip"
        }
      },
      "request": {
        "method": "PUT",
        "url": "RegulatedAuthorization/Cefuroxime-MIP-1500mg-EE-RA"
      }
    },
    {
      "resource": {
        "resourceType": "AdministrableProductDefinition",
        "id": "Cefuroxime-MIP-1500mg-EE-APD",
        "meta": {
          "profile": [
            "http://unicom-project.eu/fhir/StructureDefinition/PPLAdministrableProductDefinition"
          ]
        },
        "text": {
          "status": "generated",
          "div": "<div xmlns=\"http://www.w3.org/1999/xhtml\"><p><b>Generated Narrative: AdministrableProductDefinition</b><a name=\"Cefuroxime-MIP-1500mg-EE-APD\"> </a></p><div style=\"display: inline-block; background-color: #d9e0e7; padding: 6px; margin: 4px; border: 1px solid #8da1b4; border-radius: 5px; line-height: 60%\"><p style=\"margin-bottom: 0px\">Resource AdministrableProductDefinition &quot;Cefuroxime-MIP-1500mg-EE-APD&quot; </p><p style=\"margin-bottom: 0px\">Profile: <a href=\"StructureDefinition-PPLAdministrableProductDefinition.html\">PPL Administrable Product profile</a></p></div><p><b>status</b>: active</p><p><b>formOf</b>: <a href=\"#MedicinalProductDefinition_Cefuroxime-MIP-1500mg-EE-MPD\">See above (MedicinalProductDefinition/Cefuroxime-MIP-1500mg-EE-MPD)</a></p><p><b>administrableDoseForm</b>: Solution for injection/infusion <span style=\"background: LightGoldenRodYellow; margin: 4px; border: 1px solid khaki\"> (<a href=\"CodeSystem-pharmaceutical-dose-form-ema-cs.html\">Pharmaceutical Dose Form EMA</a>#100000074038)</span></p><p><b>unitOfPresentation</b>: Vial <span style=\"background: LightGoldenRodYellow; margin: 4px; border: 1px solid khaki\"> (<a href=\"CodeSystem-unit-of-presentation-ema-cs.html\">Unit of Presentation EMA</a>#200000002158)</span></p><p><b>producedFrom</b>: <a href=\"#ManufacturedItemDefinition_Cefuroxime-MIP-1500mg-EE-MID\">See above (ManufacturedItemDefinition/Cefuroxime-MIP-1500mg-EE-MID)</a></p><blockquote><p><b>routeOfAdministration</b></p><p><b>code</b>: Intramuscular use <span style=\"background: LightGoldenRodYellow; margin: 4px; border: 1px solid khaki\"> (100000073345#100000073600)</span></p></blockquote><blockquote><p><b>routeOfAdministration</b></p><p><b>code</b>: Intravenous use <span style=\"background: LightGoldenRodYellow; margin: 4px; border: 1px solid khaki\"> (100000073345#100000073611)</span></p></blockquote></div>"
        },
        "status": "active",
        "formOf": [
          {
            "reference": "MedicinalProductDefinition/Cefuroxime-MIP-1500mg-EE-MPD"
          }
        ],
        "administrableDoseForm": {
          "coding": [
            {
              "system": "http://spor.ema.europa.eu/v1/lists/200000000004",
              "code": "100000074038",
              "display": "Solution for injection/infusion"
            }
          ]
        },
        "unitOfPresentation": {
          "coding": [
            {
              "system": "http://spor.ema.europa.eu/v1/lists/200000000014",
              "code": "200000002158",
              "display": "Vial"
            }
          ]
        },
        "producedFrom": [
          {
            "reference": "ManufacturedItemDefinition/Cefuroxime-MIP-1500mg-EE-MID"
          }
        ],
        "routeOfAdministration": [
          {
            "code": {
              "coding": [
                {
                  "system": "http://spor.ema.europa.eu/v1/lists/100000073345",
                  "code": "100000073600",
                  "display": "Intramuscular use"
                }
              ]
            }
          },
          {
            "code": {
              "coding": [
                {
                  "system": "http://spor.ema.europa.eu/v1/lists/100000073345",
                  "code": "100000073611",
                  "display": "Intravenous use"
                }
              ]
            }
          }
        ]
      },
      "request": {
        "method": "PUT",
        "url": "AdministrableProductDefinition/Cefuroxime-MIP-1500mg-EE-APD"
      }
    },
    {
      "resource": {
        "resourceType": "ManufacturedItemDefinition",
        "id": "Cefuroxime-MIP-1500mg-EE-MID",
        "meta": {
          "profile": [
            "http://unicom-project.eu/fhir/StructureDefinition/PPLManufacturedItemDefinition"
          ]
        },
        "text": {
          "status": "generated",
          "div": "<div xmlns=\"http://www.w3.org/1999/xhtml\"><p><b>Generated Narrative: ManufacturedItemDefinition</b><a name=\"Cefuroxime-MIP-1500mg-EE-MID\"> </a></p><div style=\"display: inline-block; background-color: #d9e0e7; padding: 6px; margin: 4px; border: 1px solid #8da1b4; border-radius: 5px; line-height: 60%\"><p style=\"margin-bottom: 0px\">Resource ManufacturedItemDefinition &quot;Cefuroxime-MIP-1500mg-EE-MID&quot; </p><p style=\"margin-bottom: 0px\">Profile: <a href=\"StructureDefinition-PPLManufacturedItemDefinition.html\">PPL Manufactured Item profile</a></p></div><p><b>status</b>: active</p><p><b>manufacturedDoseForm</b>: Powder for solution for injection/infusion <span style=\"background: LightGoldenRodYellow; margin: 4px; border: 1px solid khaki\"> (<a href=\"CodeSystem-pharmaceutical-dose-form-ema-cs.html\">Pharmaceutical Dose Form EMA</a>#100000116186)</span></p><p><b>unitOfPresentation</b>: Vial <span style=\"background: LightGoldenRodYellow; margin: 4px; border: 1px solid khaki\"> (<a href=\"CodeSystem-unit-of-presentation-ema-cs.html\">Unit of Presentation EMA</a>#200000002158)</span></p></div>"
        },
        "status": "active",
        "manufacturedDoseForm": {
          "coding": [
            {
              "system": "http://spor.ema.europa.eu/v1/lists/200000000004",
              "code": "100000116186",
              "display": "Powder for solution for injection/infusion"
            }
          ]
        },
        "unitOfPresentation": {
          "coding": [
            {
              "system": "http://spor.ema.europa.eu/v1/lists/200000000014",
              "code": "200000002158",
              "display": "Vial"
            }
          ]
        }
      },
      "request": {
        "method": "PUT",
        "url": "ManufacturedItemDefinition/Cefuroxime-MIP-1500mg-EE-MID"
      }
    },
    {
      "resource": {
        "resourceType": "Ingredient",
        "id": "Cefuroxime-MIP-1500mg-EE-I",
        "text": {
          "status": "generated",
          "div": "<div xmlns=\"http://www.w3.org/1999/xhtml\"><p><b>Generated Narrative: Ingredient</b><a name=\"Cefuroxime-MIP-1500mg-EE-I\"> </a></p><div style=\"display: inline-block; background-color: #d9e0e7; padding: 6px; margin: 4px; border: 1px solid #8da1b4; border-radius: 5px; line-height: 60%\"><p style=\"margin-bottom: 0px\">Resource Ingredient &quot;Cefuroxime-MIP-1500mg-EE-I&quot; </p></div><p><b>status</b>: active</p><p><b>for</b>: </p><ul><li><a href=\"#MedicinalProductDefinition_Cefuroxime-MIP-1500mg-EE-MPD\">See above (MedicinalProductDefinition/Cefuroxime-MIP-1500mg-EE-MPD)</a></li><li><a href=\"#ManufacturedItemDefinition_Cefuroxime-MIP-1500mg-EE-MID\">See above (ManufacturedItemDefinition/Cefuroxime-MIP-1500mg-EE-MID)</a></li><li><a href=\"#AdministrableProductDefinition_Cefuroxime-MIP-1500mg-EE-APD\">See above (AdministrableProductDefinition/Cefuroxime-MIP-1500mg-EE-APD)</a></li></ul><p><b>role</b>: Active <span style=\"background: LightGoldenRodYellow; margin: 4px; border: 1px solid khaki\"> (100000072050#100000072072)</span></p><blockquote><p><b>substance</b></p><h3>Codes</h3><table class=\"grid\"><tr><td>-</td><td><b>Concept</b></td></tr><tr><td>*</td><td>CEFUROXIME SODIUM <span style=\"background: LightGoldenRodYellow; margin: 4px; border: 1px solid khaki\"> (SubstanceDefinition#100000091436)</span></td></tr></table><blockquote><p><b>strength</b></p><p><b>presentation</b>: 1578 milligram(s)<span style=\"background: LightGoldenRodYellow\"> (Details: http://spor.ema.europa.eu/v1/lists/100000110633 code 100000110655 = 'milligram(s)')</span>/1 Vial<span style=\"background: LightGoldenRodYellow\"> (Details: http://spor.ema.europa.eu/v1/lists/200000000014 code 200000002158 = 'Vial')</span></p><blockquote><p><b>referenceStrength</b></p><h3>Substances</h3><table class=\"grid\"><tr><td>-</td><td><b>Concept</b></td></tr><tr><td>*</td><td>CEFUROXIME <span style=\"background: LightGoldenRodYellow; margin: 4px; border: 1px solid khaki\"> (SubstanceDefinition#100000092667)</span></td></tr></table><p><b>strength</b>: 1500 milligram(s)<span style=\"background: LightGoldenRodYellow\"> (Details: http://spor.ema.europa.eu/v1/lists/100000110633 code 100000110655 = 'milligram(s)')</span>/1 Vial<span style=\"background: LightGoldenRodYellow\"> (Details: http://spor.ema.europa.eu/v1/lists/200000000014 code 200000002158 = 'Vial')</span></p></blockquote></blockquote></blockquote></div>"
        },
        "status": "active",
        "for": [
          {
            "reference": "MedicinalProductDefinition/Cefuroxime-MIP-1500mg-EE-MPD"
          },
          {
            "reference": "ManufacturedItemDefinition/Cefuroxime-MIP-1500mg-EE-MID"
          },
          {
            "reference": "AdministrableProductDefinition/Cefuroxime-MIP-1500mg-EE-APD"
          }
        ],
        "role": {
          "coding": [
            {
              "system": "http://spor.ema.europa.eu/v1/lists/100000072050",
              "code": "100000072072",
              "display": "Active"
            }
          ]
        },
        "substance": {
          "code": {
            "concept": {
              "coding": [
                {
                  "system": "https://spor.ema.europa.eu/v2/SubstanceDefinition",
                  "code": "100000091436",
                  "display": "CEFUROXIME SODIUM"
                }
              ]
            }
          },
          "strength": [
            {
              "presentationRatio": {
                "numerator": {
                  "value": 1578,
                  "unit": "milligram(s)",
                  "system": "http://spor.ema.europa.eu/v1/lists/100000110633",
                  "code": "100000110655"
                },
                "denominator": {
                  "value": 1,
                  "unit": "Vial",
                  "system": "http://spor.ema.europa.eu/v1/lists/200000000014",
                  "code": "200000002158"
                }
              },
              "referenceStrength": [
                {
                  "substance": {
                    "concept": {
                      "coding": [
                        {
                          "system": "https://spor.ema.europa.eu/v2/SubstanceDefinition",
                          "code": "100000092667",
                          "display": "CEFUROXIME"
                        }
                      ]
                    }
                  },
                  "strengthRatio": {
                    "numerator": {
                      "value": 1500,
                      "unit": "milligram(s)",
                      "system": "http://spor.ema.europa.eu/v1/lists/100000110633",
                      "code": "100000110655"
                    },
                    "denominator": {
                      "value": 1,
                      "unit": "Vial",
                      "system": "http://spor.ema.europa.eu/v1/lists/200000000014",
                      "code": "200000002158"
                    }
                  }
                }
              ]
            }
          ]
        }
      },
      "request": {
        "method": "PUT",
        "url": "Ingredient/Cefuroxime-MIP-1500mg-EE-I"
      }
    },
    {
      "resource": {
        "resourceType": "PackagedProductDefinition",
        "id": "Cefuroxime-MIP-1500mg-EE-PPD-1529940",
        "meta": {
          "profile": [
            "http://unicom-project.eu/fhir/StructureDefinition/PPLPackagedProductDefinition"
          ]
        },
        "text": {
          "status": "generated",
          "div": "<div xmlns=\"http://www.w3.org/1999/xhtml\"><p><b>Generated Narrative: PackagedProductDefinition</b><a name=\"Cefuroxime-MIP-1500mg-EE-PPD-1529940\"> </a></p><div style=\"display: inline-block; background-color: #d9e0e7; padding: 6px; margin: 4px; border: 1px solid #8da1b4; border-radius: 5px; line-height: 60%\"><p style=\"margin-bottom: 0px\">Resource PackagedProductDefinition &quot;Cefuroxime-MIP-1500mg-EE-PPD-1529940&quot; </p><p style=\"margin-bottom: 0px\">Profile: <a href=\"StructureDefinition-PPLPackagedProductDefinition.html\">PPL Packaged Product profile</a></p></div><p><b>identifier</b>: id: EE-100009199-27834-1529940</p><p><b>packageFor</b>: <a href=\"#MedicinalProductDefinition_Cefuroxime-MIP-1500mg-EE-MPD\">See above (MedicinalProductDefinition/Cefuroxime-MIP-1500mg-EE-MPD)</a></p><p><b>containedItemQuantity</b>: 1 vial<span style=\"background: LightGoldenRodYellow\"> (Details: http://spor.ema.europa.eu/v1/lists/200000000014 code 200000002158 = 'Vial')</span></p><p><b>description</b>: I tüüpi klaasist viaal, mis on suletud klorobutüülkummist korgi ning flip-off kattega, 1 viaal</p><h3>MarketingStatuses</h3><table class=\"grid\"><tr><td>-</td><td><b>Country</b></td><td><b>Status</b></td></tr><tr><td>*</td><td>Republic of Estonia <span style=\"background: LightGoldenRodYellow; margin: 4px; border: 1px solid khaki\"> (100000000002#100000000388)</span></td><td>Marketed <span style=\"background: LightGoldenRodYellow; margin: 4px; border: 1px solid khaki\"> (100000072052#100000072083)</span></td></tr></table><blockquote><p><b>package</b></p><p><b>type</b>: Box <span style=\"background: LightGoldenRodYellow; margin: 4px; border: 1px solid khaki\"> (100000073346#100000073498)</span></p><p><b>quantity</b>: 1</p><p><b>material</b>: Cardboard <span style=\"background: LightGoldenRodYellow; margin: 4px; border: 1px solid khaki\"> (200000003199#200000003529)</span></p><blockquote><p><b>package</b></p><p><b>type</b>: vial <span style=\"background: LightGoldenRodYellow; margin: 4px; border: 1px solid khaki\"> (100000073346#200000002158)</span></p><p><b>quantity</b>: 1</p><p><b>material</b>: Glass type I <span style=\"background: LightGoldenRodYellow; margin: 4px; border: 1px solid khaki\"> (200000003199#200000003204)</span></p></blockquote></blockquote></div>"
        },
        "identifier": [
          {
            "system": "http://ema.europa.eu/example/pcid",
            "value": "EE-100009199-27834-1529940"
          }
        ],
        "packageFor": [
          {
            "reference": "MedicinalProductDefinition/Cefuroxime-MIP-1500mg-EE-MPD"
          }
        ],
        "containedItemQuantity": [
          {
            "value": 1,
            "unit": "vial",
            "system": "http://spor.ema.europa.eu/v1/lists/200000000014",
            "code": "200000002158"
          }
        ],
        "description": "I tüüpi klaasist viaal, mis on suletud klorobutüülkummist korgi ning flip-off kattega, 1 viaal",
        "marketingStatus": [
          {
            "country": {
              "coding": [
                {
                  "system": "http://spor.ema.europa.eu/v1/lists/100000000002",
                  "code": "100000000388",
                  "display": "Republic of Estonia"
                }
              ]
            },
            "status": {
              "coding": [
                {
                  "system": "http://spor.ema.europa.eu/v1/lists/100000072052",
                  "code": "100000072083",
                  "display": "Marketed"
                }
              ]
            }
          }
        ],
        "package": {
          "type": {
            "coding": [
              {
                "system": "http://spor.ema.europa.eu/v1/lists/100000073346",
                "code": "100000073498",
                "display": "Box"
              }
            ]
          },
          "quantity": 1,
          "material": [
            {
              "coding": [
                {
                  "system": "http://spor.ema.europa.eu/v1/lists/200000003199",
                  "code": "200000003529",
                  "display": "Cardboard"
                }
              ]
            }
          ],
          "package": [
            {
              "type": {
                "coding": [
                  {
                    "system": "http://spor.ema.europa.eu/v1/lists/100000073346",
                    "code": "200000002158",
                    "display": "vial"
                  }
                ]
              },
              "quantity": 1,
              "material": [
                {
                  "coding": [
                    {
                      "system": "http://spor.ema.europa.eu/v1/lists/200000003199",
                      "code": "200000003204",
                      "display": "Glass type I"
                    }
                  ]
                }
              ],
              "containedItem": [
                {
                  "item": {
                    "reference": {
                      "reference": "ManufacturedItemDefinition/Cefuroxime-MIP-1500mg-EE-MID"
                    }
                  },
                  "amount": {
                    "value": 1
                  }
                }
              ]
            }
          ]
        }
      },
      "request": {
        "method": "PUT",
        "url": "PackagedProductDefinition/Cefuroxime-MIP-1500mg-EE-PPD-1529940"
      }
    },
    {
      "resource": {
        "resourceType": "PackagedProductDefinition",
        "id": "Cefuroxime-MIP-1500mg-EE-PPD-1529962",
        "meta": {
          "profile": [
            "http://unicom-project.eu/fhir/StructureDefinition/PPLPackagedProductDefinition"
          ]
        },
        "text": {
          "status": "generated",
          "div": "<div xmlns=\"http://www.w3.org/1999/xhtml\"><p><b>Generated Narrative: PackagedProductDefinition</b><a name=\"Cefuroxime-MIP-1500mg-EE-PPD-1529962\"> </a></p><div style=\"display: inline-block; background-color: #d9e0e7; padding: 6px; margin: 4px; border: 1px solid #8da1b4; border-radius: 5px; line-height: 60%\"><p style=\"margin-bottom: 0px\">Resource PackagedProductDefinition &quot;Cefuroxime-MIP-1500mg-EE-PPD-1529962&quot; </p><p style=\"margin-bottom: 0px\">Profile: <a href=\"StructureDefinition-PPLPackagedProductDefinition.html\">PPL Packaged Product profile</a></p></div><p><b>identifier</b>: id: ?ngen-9?</p><p><b>packageFor</b>: <a href=\"#MedicinalProductDefinition_Cefuroxime-MIP-1500mg-EE-MPD\">See above (MedicinalProductDefinition/Cefuroxime-MIP-1500mg-EE-MPD)</a></p><p><b>containedItemQuantity</b>: 10 Vial<span style=\"background: LightGoldenRodYellow\"> (Details: http://spor.ema.europa.eu/v1/lists/200000000014 code 200000002158 = 'Vial')</span></p><p><b>description</b>: I tüüpi klaasist viaal, mis on suletud klorobutüülkummist korgi ning flip-off kattega, 10 viaali</p><h3>MarketingStatuses</h3><table class=\"grid\"><tr><td>-</td><td><b>Country</b></td><td><b>Status</b></td></tr><tr><td>*</td><td>Republic of Estonia <span style=\"background: LightGoldenRodYellow; margin: 4px; border: 1px solid khaki\"> (100000000002#100000000388)</span></td><td>Marketed <span style=\"background: LightGoldenRodYellow; margin: 4px; border: 1px solid khaki\"> (100000072052#100000072083)</span></td></tr></table><blockquote><p><b>package</b></p><p><b>type</b>: Box <span style=\"background: LightGoldenRodYellow; margin: 4px; border: 1px solid khaki\"> (100000073346#100000073498)</span></p><p><b>quantity</b>: 1</p><p><b>material</b>: Cardboard <span style=\"background: LightGoldenRodYellow; margin: 4px; border: 1px solid khaki\"> (200000003199#200000003529)</span></p><blockquote><p><b>package</b></p><p><b>type</b>: vial <span style=\"background: LightGoldenRodYellow; margin: 4px; border: 1px solid khaki\"> (100000073346#200000002158)</span></p><p><b>quantity</b>: 10</p><p><b>material</b>: Glass type I <span style=\"background: LightGoldenRodYellow; margin: 4px; border: 1px solid khaki\"> (200000003199#200000003204)</span></p></blockquote></blockquote></div>"
        },
        "identifier": [
          {
            "system": "http://ema.europa.eu/example/pcid"
          }
        ],
        "packageFor": [
          {
            "reference": "MedicinalProductDefinition/Cefuroxime-MIP-1500mg-EE-MPD"
          }
        ],
        "containedItemQuantity": [
          {
            "value": 10,
            "unit": "Vial",
            "system": "http://spor.ema.europa.eu/v1/lists/200000000014",
            "code": "200000002158"
          }
        ],
        "description": "I tüüpi klaasist viaal, mis on suletud klorobutüülkummist korgi ning flip-off kattega, 10 viaali",
        "marketingStatus": [
          {
            "country": {
              "coding": [
                {
                  "system": "http://spor.ema.europa.eu/v1/lists/100000000002",
                  "code": "100000000388",
                  "display": "Republic of Estonia"
                }
              ]
            },
            "status": {
              "coding": [
                {
                  "system": "http://spor.ema.europa.eu/v1/lists/100000072052",
                  "code": "100000072083",
                  "display": "Marketed"
                }
              ]
            }
          }
        ],
        "package": {
          "type": {
            "coding": [
              {
                "system": "http://spor.ema.europa.eu/v1/lists/100000073346",
                "code": "100000073498",
                "display": "Box"
              }
            ]
          },
          "quantity": 1,
          "material": [
            {
              "coding": [
                {
                  "system": "http://spor.ema.europa.eu/v1/lists/200000003199",
                  "code": "200000003529",
                  "display": "Cardboard"
                }
              ]
            }
          ],
          "package": [
            {
              "type": {
                "coding": [
                  {
                    "system": "http://spor.ema.europa.eu/v1/lists/100000073346",
                    "code": "200000002158",
                    "display": "vial"
                  }
                ]
              },
              "quantity": 10,
              "material": [
                {
                  "coding": [
                    {
                      "system": "http://spor.ema.europa.eu/v1/lists/200000003199",
                      "code": "200000003204",
                      "display": "Glass type I"
                    }
                  ]
                }
              ],
              "containedItem": [
                {
                  "item": {
                    "reference": {
                      "reference": "ManufacturedItemDefinition/Cefuroxime-MIP-1500mg-EE-MID"
                    }
                  },
                  "amount": {
                    "value": 1
                  }
                }
              ]
            }
          ]
        }
      },
      "request": {
        "method": "PUT",
        "url": "PackagedProductDefinition/Cefuroxime-MIP-1500mg-EE-PPD-1529962"
      }
    }
  ]
}