{
  "resourceType": "Bundle",
  "id": "003-CefuroximStragen-1.5g-Powder-SE-FullProduct",
  "type": "transaction",
  "entry": [
    {
      "resource": {
        "resourceType": "MedicinalProductDefinition",
        "id": "CefuroximStragen-1.5g-Powder-SE-IS-MedicinalProductDefinition",
        "meta": {
          "profile": [
            "http://unicom-project.eu/fhir/StructureDefinition/PPLMedicinalProductDefinition"
          ]
        },
        "text": {
          "status": "generated",
          "div": "<div xmlns=\"http://www.w3.org/1999/xhtml\"><p><b>Generated Narrative: MedicinalProductDefinition</b><a name=\"CefuroximStragen-1.5g-Powder-SE-IS-MedicinalProductDefinition\"> </a></p><div style=\"display: inline-block; background-color: #d9e0e7; padding: 6px; margin: 4px; border: 1px solid #8da1b4; border-radius: 5px; line-height: 60%\"><p style=\"margin-bottom: 0px\">Resource MedicinalProductDefinition &quot;CefuroximStragen-1.5g-Powder-SE-IS-MedicinalProductDefinition&quot; </p><p style=\"margin-bottom: 0px\">Profile: <a href=\"StructureDefinition-PPLMedicinalProductDefinition.html\">PPL Medicinal Product profile</a></p></div><p><b>identifier</b>: id: SE-100002835-00050006</p><p><b>domain</b>: Human use <span style=\"background: LightGoldenRodYellow; margin: 4px; border: 1px solid khaki\"> (100000000004#100000000012)</span></p><p><b>status</b>: Current <span style=\"background: LightGoldenRodYellow; margin: 4px; border: 1px solid khaki\"> (200000005003#200000005004)</span></p><p><b>combinedPharmaceuticalDoseForm</b>: Powder for solution for injection/infusion <span style=\"background: LightGoldenRodYellow; margin: 4px; border: 1px solid khaki\"> (<a href=\"CodeSystem-pharmaceutical-dose-form-ema-cs.html\">Pharmaceutical Dose Form EMA</a>#100000116186)</span></p><p><b>indication</b>: Cefuroxim Stragen är avsett för behandling av nedanstående infektioner hos vuxna och barn, även  nyfödda (från födelsen). • Samhällsförvärvad pneumoni • Akut exacerbation av kronisk bronkit. • Komplicerade urinvägsinfektioner, även pyelonefrit. • Mjukdelsinfektioner: cellulit, erysipelas och sårinfektioner. • Intraabdominella infektioner. • Profylax mot infektion inför gastrointestinal (även esofageal), ortopedisk, kardiovaskulär och  gynekologisk operation (även kejsarsnitt). Vid behandling och förebyggande av infektioner då det är mycket troligt att anaeroba organismer  påträffas ska cefuroxim administreras tillsammans med ett lämpligt antianaerobt antibiotikum. Hänsyn ska tas till officiella riktlinjer om lämplig användning av antibakteriella medel. </p><p><b>legalStatusOfSupply</b>: Medicinal product subject to medical prescription <span style=\"background: LightGoldenRodYellow; margin: 4px; border: 1px solid khaki\"> (100000072051#100000072084)</span></p><p><b>classification</b>: Cefuroxime <span style=\"background: LightGoldenRodYellow; margin: 4px; border: 1px solid khaki\"> (100000093533#100000096183; <a href=\"http://terminology.hl7.org/4.0.0/CodeSystem-v3-WC.html\">WHO ATC</a>#J01DC02 &quot;cefuroxime&quot;)</span></p><blockquote><p><b>name</b></p><p><b>productName</b>: Cefuroxim Stragen 1,5 g Pulver till injektions-/infusionsvätska, lösning</p><blockquote><p><b>namePart</b></p><p><b>part</b>: Cefuroxim Stragen</p><p><b>type</b>: Invented name part <span style=\"background: LightGoldenRodYellow; margin: 4px; border: 1px solid khaki\"> (220000000000#220000000002)</span></p></blockquote><blockquote><p><b>namePart</b></p><p><b>part</b>: 1,5 g</p><p><b>type</b>: Strength part <span style=\"background: LightGoldenRodYellow; margin: 4px; border: 1px solid khaki\"> (220000000000#220000000004)</span></p></blockquote><blockquote><p><b>namePart</b></p><p><b>part</b>: Pulver till injektions-/infusionsvätska, lösning</p><p><b>type</b>: Pharmaceutical dose form part <span style=\"background: LightGoldenRodYellow; margin: 4px; border: 1px solid khaki\"> (220000000000#220000000005)</span></p></blockquote><h3>CountryLanguages</h3><table class=\"grid\"><tr><td>-</td><td><b>Country</b></td><td><b>Language</b></td></tr><tr><td>*</td><td>Sweden <span style=\"background: LightGoldenRodYellow; margin: 4px; border: 1px solid khaki\"> (100000000002#100000000535)</span></td><td>Swedish <span style=\"background: LightGoldenRodYellow; margin: 4px; border: 1px solid khaki\"> (100000072057#100000072288)</span></td></tr></table></blockquote></div>"
        },
        "identifier": [
          {
            "system": "http://ema.europa.eu/fhir/mpId",
            "value": "SE-100002835-00050006"
          }
        ],
        "domain": {
          "coding": [
            {
              "system": "http://spor.ema.europa.eu/v1/lists/100000000004",
              "code": "100000000012",
              "display": "Human use"
            }
          ]
        },
        "status": {
          "coding": [
            {
              "system": "http://spor.ema.europa.eu/v1/lists/200000005003",
              "code": "200000005004",
              "display": "Current"
            }
          ]
        },
        "combinedPharmaceuticalDoseForm": {
          "coding": [
            {
              "system": "http://spor.ema.europa.eu/v1/lists/200000000004",
              "code": "100000116186",
              "display": "Powder for solution for injection/infusion"
            }
          ]
        },
        "indication": "Cefuroxim Stragen är avsett för behandling av nedanstående infektioner hos vuxna och barn, även  nyfödda (från födelsen). • Samhällsförvärvad pneumoni • Akut exacerbation av kronisk bronkit. • Komplicerade urinvägsinfektioner, även pyelonefrit. • Mjukdelsinfektioner: cellulit, erysipelas och sårinfektioner. • Intraabdominella infektioner. • Profylax mot infektion inför gastrointestinal (även esofageal), ortopedisk, kardiovaskulär och  gynekologisk operation (även kejsarsnitt). Vid behandling och förebyggande av infektioner då det är mycket troligt att anaeroba organismer  påträffas ska cefuroxim administreras tillsammans med ett lämpligt antianaerobt antibiotikum. Hänsyn ska tas till officiella riktlinjer om lämplig användning av antibakteriella medel. ",
        "legalStatusOfSupply": {
          "coding": [
            {
              "system": "http://spor.ema.europa.eu/v1/lists/100000072051",
              "code": "100000072084",
              "display": "Medicinal product subject to medical prescription"
            }
          ]
        },
        "classification": [
          {
            "coding": [
              {
                "system": "http://spor.ema.europa.eu/v1/lists/100000093533",
                "code": "100000096183",
                "display": "Cefuroxime"
              },
              {
                "system": "http://www.whocc.no/atc",
                "code": "J01DC02",
                "display": "cefuroxime"
              }
            ]
          }
        ],
        "name": [
          {
            "productName": "Cefuroxim Stragen 1,5 g Pulver till injektions-/infusionsvätska, lösning",
            "namePart": [
              {
                "part": "Cefuroxim Stragen",
                "type": {
                  "coding": [
                    {
                      "system": "http://spor.ema.europa.eu/v1/lists/220000000000",
                      "code": "220000000002",
                      "display": "Invented name part"
                    }
                  ]
                }
              },
              {
                "part": "1,5 g",
                "type": {
                  "coding": [
                    {
                      "system": "http://spor.ema.europa.eu/v1/lists/220000000000",
                      "code": "220000000004",
                      "display": "Strength part"
                    }
                  ]
                }
              },
              {
                "part": "Pulver till injektions-/infusionsvätska, lösning",
                "type": {
                  "coding": [
                    {
                      "system": "http://spor.ema.europa.eu/v1/lists/220000000000",
                      "code": "220000000005",
                      "display": "Pharmaceutical dose form part"
                    }
                  ]
                }
              }
            ],
            "countryLanguage": [
              {
                "country": {
                  "coding": [
                    {
                      "system": "http://spor.ema.europa.eu/v1/lists/100000000002",
                      "code": "100000000535",
                      "display": "Sweden"
                    }
                  ]
                },
                "language": {
                  "coding": [
                    {
                      "system": "http://spor.ema.europa.eu/v1/lists/100000072057",
                      "code": "100000072288",
                      "display": "Swedish"
                    }
                  ]
                }
              }
            ]
          }
        ]
      },
      "request": {
        "method": "POST",
        "url": "MedicinalProductDefinition/CefuroximStragen-1.5g-Powder-SE-IS-MedicinalProductDefinition"
      }
    },
    {
      "resource": {
        "resourceType": "RegulatedAuthorization",
        "id": "CefuroximStragen-1.5g-Powder-SE-IS-RegulatedAuthorization",
        "meta": {
          "profile": [
            "http://unicom-project.eu/fhir/StructureDefinition/PPLRegulatedAuthorization"
          ]
        },
        "text": {
          "status": "generated",
          "div": "<div xmlns=\"http://www.w3.org/1999/xhtml\"><p><b>Generated Narrative: RegulatedAuthorization</b><a name=\"CefuroximStragen-1.5g-Powder-SE-IS-RegulatedAuthorization\"> </a></p><div style=\"display: inline-block; background-color: #d9e0e7; padding: 6px; margin: 4px; border: 1px solid #8da1b4; border-radius: 5px; line-height: 60%\"><p style=\"margin-bottom: 0px\">Resource RegulatedAuthorization &quot;CefuroximStragen-1.5g-Powder-SE-IS-RegulatedAuthorization&quot; </p><p style=\"margin-bottom: 0px\">Profile: <a href=\"StructureDefinition-PPLRegulatedAuthorization.html\">PPL Marketing Authorisation profile</a></p></div><p><b>identifier</b>: id: 50006</p><p><b>subject</b>: <a href=\"#MedicinalProductDefinition_CefuroximStragen-1.5g-Powder-SE-IS-MedicinalProductDefinition\">See above (MedicinalProductDefinition/CefuroximStragen-1.5g-Powder-SE-IS-MedicinalProductDefinition)</a></p><p><b>type</b>: Marketing Authorisation <span style=\"background: LightGoldenRodYellow; margin: 4px; border: 1px solid khaki\"> (220000000060#220000000061)</span></p><p><b>region</b>: Sweden <span style=\"background: LightGoldenRodYellow; margin: 4px; border: 1px solid khaki\"> (100000000002#100000000535)</span></p><p><b>status</b>: Valid <span style=\"background: LightGoldenRodYellow; margin: 4px; border: 1px solid khaki\"> (100000072049#100000072099)</span></p><p><b>statusDate</b>: 2014-06-11</p><p><b>holder</b>: <a href=\"Organization/LOC-100001098-StragenNordic\">Organization/LOC-100001098-StragenNordic</a></p></div>"
        },
        "identifier": [
          {
            "value": "50006"
          }
        ],
        "subject": [
          {
            "reference": "MedicinalProductDefinition/CefuroximStragen-1.5g-Powder-SE-IS-MedicinalProductDefinition"
          }
        ],
        "type": {
          "coding": [
            {
              "system": "http://spor.ema.europa.eu/v1/lists/220000000060",
              "code": "220000000061",
              "display": "Marketing Authorisation"
            }
          ]
        },
        "region": [
          {
            "coding": [
              {
                "system": "http://spor.ema.europa.eu/v1/lists/100000000002",
                "code": "100000000535",
                "display": "Sweden"
              }
            ]
          }
        ],
        "status": {
          "coding": [
            {
              "system": "http://spor.ema.europa.eu/v1/lists/100000072049",
              "code": "100000072099",
              "display": "Valid"
            }
          ]
        },
        "statusDate": "2014-06-11",
        "holder": {
          "reference": "Organization/LOC-100001098-StragenNordic"
        }
      },
      "request": {
        "method": "POST",
        "url": "RegulatedAuthorization/CefuroximStragen-1.5g-Powder-SE-IS-RegulatedAuthorization"
      }
    },
    {
      "resource": {
        "resourceType": "AdministrableProductDefinition",
        "id": "CefuroximStragen-1.5g-Powder-SE-IS-AdminProdDef",
        "text": {
          "status": "generated",
          "div": "<div xmlns=\"http://www.w3.org/1999/xhtml\"><p><b>Generated Narrative: AdministrableProductDefinition</b><a name=\"CefuroximStragen-1.5g-Powder-SE-IS-AdminProdDef\"> </a></p><div style=\"display: inline-block; background-color: #d9e0e7; padding: 6px; margin: 4px; border: 1px solid #8da1b4; border-radius: 5px; line-height: 60%\"><p style=\"margin-bottom: 0px\">Resource AdministrableProductDefinition &quot;CefuroximStragen-1.5g-Powder-SE-IS-AdminProdDef&quot; </p></div><p><b>status</b>: active</p><p><b>formOf</b>: <a href=\"#MedicinalProductDefinition_CefuroximStragen-1.5g-Powder-SE-IS-MedicinalProductDefinition\">See above (MedicinalProductDefinition/CefuroximStragen-1.5g-Powder-SE-IS-MedicinalProductDefinition)</a></p><p><b>administrableDoseForm</b>: Solution for injection/infusion <span style=\"background: LightGoldenRodYellow; margin: 4px; border: 1px solid khaki\"> (<a href=\"CodeSystem-pharmaceutical-dose-form-ema-cs.html\">Pharmaceutical Dose Form EMA</a>#100000074038)</span></p><p><b>producedFrom</b>: <a href=\"#ManufacturedItemDefinition_CefuroximStragen-1.5g-Powder-SE-IS-ManufacturedItemDefinition\">See above (ManufacturedItemDefinition/CefuroximStragen-1.5g-Powder-SE-IS-ManufacturedItemDefinition)</a></p><h3>RouteOfAdministrations</h3><table class=\"grid\"><tr><td>-</td><td><b>Code</b></td></tr><tr><td>*</td><td>Intramuscular use <span style=\"background: LightGoldenRodYellow; margin: 4px; border: 1px solid khaki\"> (100000073345#100000073600; 100000073345#100000073611 &quot;Intravenous use&quot;)</span></td></tr></table></div>"
        },
        "status": "active",
        "formOf": [
          {
            "reference": "MedicinalProductDefinition/CefuroximStragen-1.5g-Powder-SE-IS-MedicinalProductDefinition"
          }
        ],
        "administrableDoseForm": {
          "coding": [
            {
              "system": "http://spor.ema.europa.eu/v1/lists/200000000004",
              "code": "100000074038",
              "display": "Solution for injection/infusion"
            }
          ]
        },
        "producedFrom": [
          {
            "reference": "ManufacturedItemDefinition/CefuroximStragen-1.5g-Powder-SE-IS-ManufacturedItemDefinition"
          }
        ],
        "routeOfAdministration": [
          {
            "code": {
              "coding": [
                {
                  "system": "http://spor.ema.europa.eu/v1/lists/100000073345",
                  "code": "100000073600",
                  "display": "Intramuscular use"
                },
                {
                  "system": "http://spor.ema.europa.eu/v1/lists/100000073345",
                  "code": "100000073611",
                  "display": "Intravenous use"
                }
              ]
            }
          }
        ]
      },
      "request": {
        "method": "POST",
        "url": "AdministrableProductDefinition/CefuroximStragen-1.5g-Powder-SE-IS-AdminProdDef"
      }
    },
    {
      "resource": {
        "resourceType": "PackagedProductDefinition",
        "id": "CefuroximStragen-1.5g-Powder-SE-IS-PackagedProductDefinition",
        "text": {
          "status": "generated",
          "div": "<div xmlns=\"http://www.w3.org/1999/xhtml\"><p><b>Generated Narrative: PackagedProductDefinition</b><a name=\"CefuroximStragen-1.5g-Powder-SE-IS-PackagedProductDefinition\"> </a></p><div style=\"display: inline-block; background-color: #d9e0e7; padding: 6px; margin: 4px; border: 1px solid #8da1b4; border-radius: 5px; line-height: 60%\"><p style=\"margin-bottom: 0px\">Resource PackagedProductDefinition &quot;CefuroximStragen-1.5g-Powder-SE-IS-PackagedProductDefinition&quot; </p></div><p><b>packageFor</b>: <a href=\"#MedicinalProductDefinition_CefuroximStragen-1.5g-Powder-SE-IS-MedicinalProductDefinition\">See above (MedicinalProductDefinition/CefuroximStragen-1.5g-Powder-SE-IS-MedicinalProductDefinition)</a></p><p><b>containedItemQuantity</b>: 10 Vial<span style=\"background: LightGoldenRodYellow\"> (Details: http://spor.ema.europa.eu/v1/lists/200000000014 code 200000002158 = 'Vial')</span></p><p><b>description</b>: Injektionsflaska, 10 st (10 x 1,5 g)</p><h3>MarketingStatuses</h3><table class=\"grid\"><tr><td>-</td><td><b>Country</b></td><td><b>Status</b></td></tr><tr><td>*</td><td>Sweden <span style=\"background: LightGoldenRodYellow; margin: 4px; border: 1px solid khaki\"> (100000000002#100000000535)</span></td><td>Marketed <span style=\"background: LightGoldenRodYellow; margin: 4px; border: 1px solid khaki\"> (100000072052#100000072083)</span></td></tr></table><blockquote><p><b>package</b></p><p><b>type</b>: Box <span style=\"background: LightGoldenRodYellow; margin: 4px; border: 1px solid khaki\"> (100000073346#100000073498)</span></p><p><b>quantity</b>: 1</p><p><b>material</b>: Plastic <span style=\"background: LightGoldenRodYellow; margin: 4px; border: 1px solid khaki\"> (200000003199#200000003208)</span></p><blockquote><p><b>package</b></p><p><b>type</b>: Vial <span style=\"background: LightGoldenRodYellow; margin: 4px; border: 1px solid khaki\"> (100000073346#100000073563)</span></p><p><b>quantity</b>: 10</p><p><b>material</b>: Glass <span style=\"background: LightGoldenRodYellow; margin: 4px; border: 1px solid khaki\"> (200000003199#200000003203)</span></p></blockquote></blockquote></div>"
        },
        "packageFor": [
          {
            "reference": "MedicinalProductDefinition/CefuroximStragen-1.5g-Powder-SE-IS-MedicinalProductDefinition"
          }
        ],
        "containedItemQuantity": [
          {
            "value": 10,
            "unit": "Vial",
            "system": "http://spor.ema.europa.eu/v1/lists/200000000014",
            "code": "200000002158"
          }
        ],
        "description": "Injektionsflaska, 10 st (10 x 1,5 g)",
        "marketingStatus": [
          {
            "country": {
              "coding": [
                {
                  "system": "http://spor.ema.europa.eu/v1/lists/100000000002",
                  "code": "100000000535",
                  "display": "Sweden"
                }
              ]
            },
            "status": {
              "coding": [
                {
                  "system": "http://spor.ema.europa.eu/v1/lists/100000072052",
                  "code": "100000072083",
                  "display": "Marketed"
                }
              ]
            }
          }
        ],
        "package": {
          "type": {
            "coding": [
              {
                "system": "http://spor.ema.europa.eu/v1/lists/100000073346",
                "code": "100000073498",
                "display": "Box"
              }
            ]
          },
          "quantity": 1,
          "material": [
            {
              "coding": [
                {
                  "system": "http://spor.ema.europa.eu/v1/lists/200000003199",
                  "code": "200000003208",
                  "display": "Plastic"
                }
              ]
            }
          ],
          "package": [
            {
              "type": {
                "coding": [
                  {
                    "system": "http://spor.ema.europa.eu/v1/lists/100000073346",
                    "code": "100000073563",
                    "display": "Vial"
                  }
                ]
              },
              "quantity": 10,
              "material": [
                {
                  "coding": [
                    {
                      "system": "http://spor.ema.europa.eu/v1/lists/200000003199",
                      "code": "200000003203",
                      "display": "Glass"
                    }
                  ]
                }
              ],
              "containedItem": [
                {
                  "item": {
                    "reference": {
                      "reference": "ManufacturedItemDefinition/CefuroximStragen-1.5g-Powder-SE-IS-ManufacturedItemDefinition"
                    }
                  },
                  "amount": {
                    "value": 1,
                    "unit": "Vial",
                    "system": "200000000014",
                    "code": "200000002158"
                  }
                }
              ]
            }
          ]
        }
      },
      "request": {
        "method": "POST",
        "url": "PackagedProductDefinition/CefuroximStragen-1.5g-Powder-SE-IS-PackagedProductDefinition"
      }
    },
    {
      "resource": {
        "resourceType": "ManufacturedItemDefinition",
        "id": "CefuroximStragen-1.5g-Powder-SE-IS-ManufacturedItemDefinition",
        "text": {
          "status": "generated",
          "div": "<div xmlns=\"http://www.w3.org/1999/xhtml\"><p><b>Generated Narrative: ManufacturedItemDefinition</b><a name=\"CefuroximStragen-1.5g-Powder-SE-IS-ManufacturedItemDefinition\"> </a></p><div style=\"display: inline-block; background-color: #d9e0e7; padding: 6px; margin: 4px; border: 1px solid #8da1b4; border-radius: 5px; line-height: 60%\"><p style=\"margin-bottom: 0px\">Resource ManufacturedItemDefinition &quot;CefuroximStragen-1.5g-Powder-SE-IS-ManufacturedItemDefinition&quot; </p></div><p><b>status</b>: active</p><p><b>manufacturedDoseForm</b>: Powder for solution for injection/infusion <span style=\"background: LightGoldenRodYellow; margin: 4px; border: 1px solid khaki\"> (<a href=\"CodeSystem-pharmaceutical-dose-form-ema-cs.html\">Pharmaceutical Dose Form EMA</a>#100000116186)</span></p><p><b>unitOfPresentation</b>: Vial <span style=\"background: LightGoldenRodYellow; margin: 4px; border: 1px solid khaki\"> (<a href=\"CodeSystem-unit-of-presentation-ema-cs.html\">Unit of Presentation EMA</a>#200000002158)</span></p></div>"
        },
        "status": "active",
        "manufacturedDoseForm": {
          "coding": [
            {
              "system": "http://spor.ema.europa.eu/v1/lists/200000000004",
              "code": "100000116186",
              "display": "Powder for solution for injection/infusion"
            }
          ]
        },
        "unitOfPresentation": {
          "coding": [
            {
              "system": "http://spor.ema.europa.eu/v1/lists/200000000014",
              "code": "200000002158",
              "display": "Vial"
            }
          ]
        }
      },
      "request": {
        "method": "POST",
        "url": "ManufacturedItemDefinition/CefuroximStragen-1.5g-Powder-SE-IS-ManufacturedItemDefinition"
      }
    },
    {
      "resource": {
        "resourceType": "Ingredient",
        "id": "CefuroximStragen-1.5g-Powder-SE-IS-Ingredient",
        "text": {
          "status": "generated",
          "div": "<div xmlns=\"http://www.w3.org/1999/xhtml\"><p><b>Generated Narrative: Ingredient</b><a name=\"CefuroximStragen-1.5g-Powder-SE-IS-Ingredient\"> </a></p><div style=\"display: inline-block; background-color: #d9e0e7; padding: 6px; margin: 4px; border: 1px solid #8da1b4; border-radius: 5px; line-height: 60%\"><p style=\"margin-bottom: 0px\">Resource Ingredient &quot;CefuroximStragen-1.5g-Powder-SE-IS-Ingredient&quot; </p></div><p><b>status</b>: active</p><p><b>for</b>: </p><ul><li><a href=\"#MedicinalProductDefinition_CefuroximStragen-1.5g-Powder-SE-IS-MedicinalProductDefinition\">See above (MedicinalProductDefinition/CefuroximStragen-1.5g-Powder-SE-IS-MedicinalProductDefinition)</a></li><li><a href=\"#ManufacturedItemDefinition_CefuroximStragen-1.5g-Powder-SE-IS-ManufacturedItemDefinition\">See above (ManufacturedItemDefinition/CefuroximStragen-1.5g-Powder-SE-IS-ManufacturedItemDefinition)</a></li><li><a href=\"#AdministrableProductDefinition_CefuroximStragen-1.5g-Powder-SE-IS-AdminProdDef\">See above (AdministrableProductDefinition/CefuroximStragen-1.5g-Powder-SE-IS-AdminProdDef)</a></li></ul><p><b>role</b>: Active <span style=\"background: LightGoldenRodYellow; margin: 4px; border: 1px solid khaki\"> (100000072050#100000072072)</span></p><blockquote><p><b>substance</b></p><h3>Codes</h3><table class=\"grid\"><tr><td>-</td><td><b>Concept</b></td></tr><tr><td>*</td><td>cefuroxime sodium <span style=\"background: LightGoldenRodYellow; margin: 4px; border: 1px solid khaki\"> (SubstanceDefinition#100000091436)</span></td></tr></table><blockquote><p><b>strength</b></p><p><b>presentation</b>: 1.578 gram(s)<span style=\"background: LightGoldenRodYellow\"> (Details: 100000110633 code 100000110654 = '100000110654')</span>/1 countable unit(s)<span style=\"background: LightGoldenRodYellow\"> (Details: 100000110633 code 200000027120 = '200000027120')</span></p><blockquote><p><b>referenceStrength</b></p><h3>Substances</h3><table class=\"grid\"><tr><td>-</td><td><b>Concept</b></td></tr><tr><td>*</td><td>cefuroxime <span style=\"background: LightGoldenRodYellow; margin: 4px; border: 1px solid khaki\"> (SubstanceDefinition#100000092667)</span></td></tr></table><p><b>strength</b>: 1.5 gram(s)<span style=\"background: LightGoldenRodYellow\"> (Details: 100000110633 code 100000110654 = '100000110654')</span>/1 countable unit(s)<span style=\"background: LightGoldenRodYellow\"> (Details: 100000110633 code 200000027120 = '200000027120')</span></p></blockquote></blockquote></blockquote></div>"
        },
        "status": "active",
        "for": [
          {
            "reference": "MedicinalProductDefinition/CefuroximStragen-1.5g-Powder-SE-IS-MedicinalProductDefinition"
          },
          {
            "reference": "ManufacturedItemDefinition/CefuroximStragen-1.5g-Powder-SE-IS-ManufacturedItemDefinition"
          },
          {
            "reference": "AdministrableProductDefinition/CefuroximStragen-1.5g-Powder-SE-IS-AdminProdDef"
          }
        ],
        "role": {
          "coding": [
            {
              "system": "http://spor.ema.europa.eu/v1/lists/100000072050",
              "code": "100000072072",
              "display": "Active"
            }
          ]
        },
        "substance": {
          "code": {
            "concept": {
              "coding": [
                {
                  "system": "https://spor.ema.europa.eu/v2/SubstanceDefinition",
                  "code": "100000091436",
                  "display": "cefuroxime sodium"
                }
              ]
            }
          },
          "strength": [
            {
              "presentationRatio": {
                "numerator": {
                  "value": 1.578,
                  "unit": "gram(s)",
                  "system": "100000110633",
                  "code": "100000110654"
                },
                "denominator": {
                  "value": 1,
                  "unit": "countable unit(s)",
                  "system": "100000110633",
                  "code": "200000027120"
                }
              },
              "referenceStrength": [
                {
                  "substance": {
                    "concept": {
                      "coding": [
                        {
                          "system": "https://spor.ema.europa.eu/v2/SubstanceDefinition",
                          "code": "100000092667",
                          "display": "cefuroxime"
                        }
                      ]
                    }
                  },
                  "strengthRatio": {
                    "numerator": {
                      "value": 1.5,
                      "unit": "gram(s)",
                      "system": "100000110633",
                      "code": "100000110654"
                    },
                    "denominator": {
                      "value": 1,
                      "unit": "countable unit(s)",
                      "system": "100000110633",
                      "code": "200000027120"
                    }
                  }
                }
              ]
            }
          ]
        }
      },
      "request": {
        "method": "POST",
        "url": "Ingredient/CefuroximStragen-1.5g-Powder-SE-IS-Ingredient"
      }
    }
  ]
}