<?xml version="1.0" encoding="UTF-8"?>

<Bundle xmlns="http://hl7.org/fhir">
  <id value="016-Lodipin-10mg-Capsule-GR-FullProduct"/>
  <type value="collection"/>
  <entry>
    <fullUrl value="https://hl7-eu.github.io/unicom-ig/branches/mpd-r4b/MedicinalProductDefinition-Lodipin-10mg-Capsule-GR-MPD"/>
    <resource>
      <MedicinalProductDefinition>
        <id value="Lodipin-10mg-Capsule-GR-MPD"/>
        <meta>
          <profile value="http://unicom-project.eu/fhir/StructureDefinition/PPLMedicinalProductDefinition"/>
        </meta>
        <text>
          <status value="generated"/><div xmlns="http://www.w3.org/1999/xhtml"><a name="MedicinalProductDefinition_Lodipin-10mg-Capsule-GR-MPD"> </a><p class="res-header-id"><b>Generated Narrative: MedicinalProductDefinition Lodipin-10mg-Capsule-GR-MPD</b></p><a name="Lodipin-10mg-Capsule-GR-MPD"> </a><a name="hcLodipin-10mg-Capsule-GR-MPD"> </a><a name="Lodipin-10mg-Capsule-GR-MPD-en-US"> </a><p><b>identifier</b>: <code>http://ema.europa.eu/fhir/mpId</code>/GR-100005016-2584402</p><p><b>domain</b>: <span title="Codes:{https://spor.ema.europa.eu/v1/lists/100000000004 100000000012}">Human use</span></p><p><b>status</b>: <span title="Codes:{https://spor.ema.europa.eu/v1/lists/200000005003 200000005004}">Current</span></p><p><b>combinedPharmaceuticalDoseForm</b>: <span title="Codes:{https://spor.ema.europa.eu/v1/lists/200000000004 100000073375}">Capsule, hard</span></p><p><b>legalStatusOfSupply</b>: <span title="Codes:{https://spor.ema.europa.eu/v1/lists/100000072051 100000072084}">Medicinal product subject to medical prescription</span></p><p><b>classification</b>: <span title="Codes:{https://spor.ema.europa.eu/v1/lists/100000093533 100000095065}">amlodipine</span>, <span title="Codes:{http://www.whocc.no/atc C08CA01}">amlodipine</span></p><blockquote><p><b>name</b></p><p><b>productName</b>: LODIPIN 10 mg καψάκια, σκληρά</p><blockquote><p><b>part</b></p><p><b>part</b>: LODIPIN</p><p><b>type</b>: <span title="Codes:{https://spor.ema.europa.eu/v1/lists/220000000000 220000000002}">Invented name part</span></p></blockquote><blockquote><p><b>part</b></p><p><b>part</b>: 10 mg</p><p><b>type</b>: <span title="Codes:{https://spor.ema.europa.eu/v1/lists/220000000000 220000000004}">Strength part</span></p></blockquote><blockquote><p><b>part</b></p><p><b>part</b>: καψάκια, σκληρά</p><p><b>type</b>: <span title="Codes:{https://spor.ema.europa.eu/v1/lists/220000000000 220000000005}">Pharmaceutical dose form part</span></p></blockquote><h3>Usages</h3><table class="grid"><tr><td style="display: none">-</td><td><b>Country</b></td><td><b>Language</b></td></tr><tr><td style="display: none">*</td><td><span title="Codes:{https://spor.ema.europa.eu/v1/lists/100000000002 100000000406}">Hellenic Republic</span></td><td><span title="Codes:{urn:ietf:bcp:47 el}">Modern Greek (1453-)</span></td></tr></table></blockquote></div>
        </text>
        <identifier>
          <system value="http://ema.europa.eu/fhir/mpId"/>
          <value value="GR-100005016-2584402"/>
        </identifier>
        <domain>
          <coding>
            <system value="https://spor.ema.europa.eu/v1/lists/100000000004"/>
            <code value="100000000012"/>
            <display value="Human use"/>
          </coding>
        </domain>
        <status>
          <coding>
            <system value="https://spor.ema.europa.eu/v1/lists/200000005003"/>
            <code value="200000005004"/>
            <display value="Current"/>
          </coding>
        </status>
        <combinedPharmaceuticalDoseForm>
          <coding>
            <system value="https://spor.ema.europa.eu/v1/lists/200000000004"/>
            <code value="100000073375"/>
            <display value="Capsule, hard"/>
          </coding>
        </combinedPharmaceuticalDoseForm>
        <legalStatusOfSupply>
          <coding>
            <system value="https://spor.ema.europa.eu/v1/lists/100000072051"/>
            <code value="100000072084"/>
            <display value="Medicinal product subject to medical prescription"/>
          </coding>
        </legalStatusOfSupply>
        <classification>
          <coding>
            <system value="https://spor.ema.europa.eu/v1/lists/100000093533"/>
            <code value="100000095065"/>
            <display value="amlodipine"/>
          </coding>
        </classification>
        <classification>
          <coding>
            <system value="http://www.whocc.no/atc"/>
            <code value="C08CA01"/>
            <display value="amlodipine"/>
          </coding>
        </classification>
        <name>
          <productName value="LODIPIN 10 mg καψάκια, σκληρά"/>
          <part>
            <part value="LODIPIN"/>
            <type>
              <coding>
                <system value="https://spor.ema.europa.eu/v1/lists/220000000000"/>
                <code value="220000000002"/>
                <display value="Invented name part"/>
              </coding>
            </type>
          </part>
          <part>
            <part value="10 mg"/>
            <type>
              <coding>
                <system value="https://spor.ema.europa.eu/v1/lists/220000000000"/>
                <code value="220000000004"/>
                <display value="Strength part"/>
              </coding>
            </type>
          </part>
          <part>
            <part value="καψάκια, σκληρά"/>
            <type>
              <coding>
                <system value="https://spor.ema.europa.eu/v1/lists/220000000000"/>
                <code value="220000000005"/>
                <display value="Pharmaceutical dose form part"/>
              </coding>
            </type>
          </part>
          <usage>
            <country>
              <coding>
                <system value="https://spor.ema.europa.eu/v1/lists/100000000002"/>
                <code value="100000000406"/>
                <display value="Hellenic Republic"/>
              </coding>
            </country>
            <language>
              <coding>
                <system value="urn:ietf:bcp:47"/>
                <code value="el"/>
                <display value="Modern Greek (1453-)"/>
              </coding>
            </language>
          </usage>
        </name>
      </MedicinalProductDefinition>
    </resource>
  </entry>
  <entry>
    <fullUrl value="https://hl7-eu.github.io/unicom-ig/branches/mpd-r4b/RegulatedAuthorization-Lodipin-10mg-Capsule-GR-RA"/>
    <resource>
      <RegulatedAuthorization>
        <id value="Lodipin-10mg-Capsule-GR-RA"/>
        <meta>
          <profile value="http://unicom-project.eu/fhir/StructureDefinition/PPLRegulatedAuthorization"/>
        </meta>
        <text>
          <status value="generated"/><div xmlns="http://www.w3.org/1999/xhtml"><a name="RegulatedAuthorization_Lodipin-10mg-Capsule-GR-RA"> </a><p class="res-header-id"><b>Generated Narrative: RegulatedAuthorization Lodipin-10mg-Capsule-GR-RA</b></p><a name="Lodipin-10mg-Capsule-GR-RA"> </a><a name="hcLodipin-10mg-Capsule-GR-RA"> </a><a name="Lodipin-10mg-Capsule-GR-RA-en-US"> </a><p><b>identifier</b>: 100005016xyz</p><p><b>subject</b>: <a href="Bundle-016-Lodipin-10mg-Capsule-GR-FullProduct.html#MedicinalProductDefinition_Lodipin-10mg-Capsule-GR-MPD">Bundle: type = collection</a></p><p><b>type</b>: <span title="Codes:{https://spor.ema.europa.eu/v1/lists/220000000060 220000000061}">Marketing Authorisation</span></p><p><b>region</b>: <span title="Codes:{https://spor.ema.europa.eu/v1/lists/100000000002 100000000406}">Hellenic Republic</span></p><p><b>status</b>: <span title="Codes:{https://spor.ema.europa.eu/v1/lists/100000072049 100000072099}">Valid</span></p><p><b>statusDate</b>: 2022-10-01</p><p><b>holder</b>: <a href="Bundle-016-Lodipin-10mg-Capsule-GR-FullProduct.html#Organization_LOC-100005016-Iasis">Bundle: type = collection</a></p></div>
        </text>
        <identifier>
          <value value="100005016xyz"/>
        </identifier>
        <subject>
          <reference value="MedicinalProductDefinition/Lodipin-10mg-Capsule-GR-MPD"/>
        </subject>
        <type>
          <coding>
            <system value="https://spor.ema.europa.eu/v1/lists/220000000060"/>
            <code value="220000000061"/>
            <display value="Marketing Authorisation"/>
          </coding>
        </type>
        <region>
          <coding>
            <system value="https://spor.ema.europa.eu/v1/lists/100000000002"/>
            <code value="100000000406"/>
            <display value="Hellenic Republic"/>
          </coding>
        </region>
        <status>
          <coding>
            <system value="https://spor.ema.europa.eu/v1/lists/100000072049"/>
            <code value="100000072099"/>
            <display value="Valid"/>
          </coding>
        </status>
        <statusDate value="2022-10-01"/>
        <holder>
          <reference value="Organization/LOC-100005016-Iasis"/>
        </holder>
      </RegulatedAuthorization>
    </resource>
  </entry>
  <entry>
    <fullUrl value="https://hl7-eu.github.io/unicom-ig/branches/mpd-r4b/Organization-LOC-100005016-Iasis"/>
    <resource>
      <Organization>
        <id value="LOC-100005016-Iasis"/>
        <meta>
          <profile value="http://unicom-project.eu/fhir/StructureDefinition/PPLOrganization"/>
        </meta>
        <text>
          <status value="generated"/><div xmlns="http://www.w3.org/1999/xhtml"><a name="Organization_LOC-100005016-Iasis"> </a><p class="res-header-id"><b>Generated Narrative: Organization LOC-100005016-Iasis</b></p><a name="LOC-100005016-Iasis"> </a><a name="hcLOC-100005016-Iasis"> </a><a name="LOC-100005016-Iasis-en-US"> </a><p><b>identifier</b>: <code>https://spor.ema.europa.eu/v1/locations</code>/LOC-100005016, <code>https://spor.ema.europa.eu/v1/organisations</code>/ORG-100005779</p><p><b>name</b>: Iasis Pharmaceuticals Hellas S.A.</p></div>
        </text>
        <identifier>
          <system value="https://spor.ema.europa.eu/v1/locations"/>
          <value value="LOC-100005016"/>
        </identifier>
        <identifier>
          <system value="https://spor.ema.europa.eu/v1/organisations"/>
          <value value="ORG-100005779"/>
        </identifier>
        <name value="Iasis Pharmaceuticals Hellas S.A."/>
      </Organization>
    </resource>
  </entry>
  <entry>
    <fullUrl value="https://hl7-eu.github.io/unicom-ig/branches/mpd-r4b/AdministrableProductDefinition-Lodipin-10mg-Capsule-GR-APD"/>
    <resource>
      <AdministrableProductDefinition>
        <id value="Lodipin-10mg-Capsule-GR-APD"/>
        <meta>
          <profile value="http://unicom-project.eu/fhir/StructureDefinition/PPLAdministrableProductDefinition"/>
        </meta>
        <text>
          <status value="generated"/><div xmlns="http://www.w3.org/1999/xhtml"><a name="AdministrableProductDefinition_Lodipin-10mg-Capsule-GR-APD"> </a><p class="res-header-id"><b>Generated Narrative: AdministrableProductDefinition Lodipin-10mg-Capsule-GR-APD</b></p><a name="Lodipin-10mg-Capsule-GR-APD"> </a><a name="hcLodipin-10mg-Capsule-GR-APD"> </a><a name="Lodipin-10mg-Capsule-GR-APD-en-US"> </a><p><b>status</b>: Active</p><p><b>formOf</b>: <a href="Bundle-016-Lodipin-10mg-Capsule-GR-FullProduct.html#MedicinalProductDefinition_Lodipin-10mg-Capsule-GR-MPD">Bundle: type = collection</a></p><p><b>administrableDoseForm</b>: <span title="Codes:{https://spor.ema.europa.eu/v1/lists/200000000004 100000073375}">Capsule, hard</span></p><p><b>unitOfPresentation</b>: <span title="Codes:{https://spor.ema.europa.eu/v1/lists/200000000014 200000002113}">Capsule</span></p><p><b>producedFrom</b>: <a href="Bundle-016-Lodipin-10mg-Capsule-GR-FullProduct.html#ManufacturedItemDefinition_Lodipin-10mg-Capsule-GR-MID">Bundle: type = collection</a></p><h3>RouteOfAdministrations</h3><table class="grid"><tr><td style="display: none">-</td><td><b>Code</b></td></tr><tr><td style="display: none">*</td><td><span title="Codes:{https://spor.ema.europa.eu/v1/lists/100000073345 100000073619}">Oral use</span></td></tr></table></div>
        </text>
        <status value="active"/>
        <formOf>
          <reference value="MedicinalProductDefinition/Lodipin-10mg-Capsule-GR-MPD"/>
        </formOf>
        <administrableDoseForm>
          <coding>
            <system value="https://spor.ema.europa.eu/v1/lists/200000000004"/>
            <code value="100000073375"/>
            <display value="Capsule, hard"/>
          </coding>
        </administrableDoseForm>
        <unitOfPresentation>
          <coding>
            <system value="https://spor.ema.europa.eu/v1/lists/200000000014"/>
            <code value="200000002113"/>
            <display value="Capsule"/>
          </coding>
        </unitOfPresentation>
        <producedFrom>
          <reference value="ManufacturedItemDefinition/Lodipin-10mg-Capsule-GR-MID"/>
        </producedFrom>
        <routeOfAdministration>
          <code>
            <coding>
              <system value="https://spor.ema.europa.eu/v1/lists/100000073345"/>
              <code value="100000073619"/>
              <display value="Oral use"/>
            </coding>
          </code>
        </routeOfAdministration>
      </AdministrableProductDefinition>
    </resource>
  </entry>
  <entry>
    <fullUrl value="https://hl7-eu.github.io/unicom-ig/branches/mpd-r4b/ManufacturedItemDefinition-Lodipin-10mg-Capsule-GR-MID"/>
    <resource>
      <ManufacturedItemDefinition>
        <id value="Lodipin-10mg-Capsule-GR-MID"/>
        <meta>
          <profile value="http://unicom-project.eu/fhir/StructureDefinition/PPLManufacturedItemDefinition"/>
        </meta>
        <text>
          <status value="generated"/><div xmlns="http://www.w3.org/1999/xhtml"><a name="ManufacturedItemDefinition_Lodipin-10mg-Capsule-GR-MID"> </a><p class="res-header-id"><b>Generated Narrative: ManufacturedItemDefinition Lodipin-10mg-Capsule-GR-MID</b></p><a name="Lodipin-10mg-Capsule-GR-MID"> </a><a name="hcLodipin-10mg-Capsule-GR-MID"> </a><a name="Lodipin-10mg-Capsule-GR-MID-en-US"> </a><p><b>status</b>: Active</p><p><b>manufacturedDoseForm</b>: <span title="Codes:{https://spor.ema.europa.eu/v1/lists/200000000004 100000073375}">Capsule, hard</span></p><p><b>unitOfPresentation</b>: <span title="Codes:{https://spor.ema.europa.eu/v1/lists/200000000014 200000002113}">Capsule</span></p></div>
        </text>
        <status value="active"/>
        <manufacturedDoseForm>
          <coding>
            <system value="https://spor.ema.europa.eu/v1/lists/200000000004"/>
            <code value="100000073375"/>
            <display value="Capsule, hard"/>
          </coding>
        </manufacturedDoseForm>
        <unitOfPresentation>
          <coding>
            <system value="https://spor.ema.europa.eu/v1/lists/200000000014"/>
            <code value="200000002113"/>
            <display value="Capsule"/>
          </coding>
        </unitOfPresentation>
      </ManufacturedItemDefinition>
    </resource>
  </entry>
  <entry>
    <fullUrl value="https://hl7-eu.github.io/unicom-ig/branches/mpd-r4b/Ingredient-Lodipin-10mg-Capsule-GR-I"/>
    <resource>
      <Ingredient>
        <id value="Lodipin-10mg-Capsule-GR-I"/>
        <meta>
          <profile value="http://unicom-project.eu/fhir/StructureDefinition/PPLIngredient"/>
        </meta>
        <text>
          <status value="generated"/><div xmlns="http://www.w3.org/1999/xhtml"><a name="Ingredient_Lodipin-10mg-Capsule-GR-I"> </a><p class="res-header-id"><b>Generated Narrative: Ingredient Lodipin-10mg-Capsule-GR-I</b></p><a name="Lodipin-10mg-Capsule-GR-I"> </a><a name="hcLodipin-10mg-Capsule-GR-I"> </a><a name="Lodipin-10mg-Capsule-GR-I-en-US"> </a><p><b>status</b>: Active</p><p><b>for</b>: </p><ul><li><a href="Bundle-016-Lodipin-10mg-Capsule-GR-FullProduct.html#MedicinalProductDefinition_Lodipin-10mg-Capsule-GR-MPD">Bundle: type = collection</a></li><li><a href="Bundle-016-Lodipin-10mg-Capsule-GR-FullProduct.html#ManufacturedItemDefinition_Lodipin-10mg-Capsule-GR-MID">Bundle: type = collection</a></li><li><a href="Bundle-016-Lodipin-10mg-Capsule-GR-FullProduct.html#AdministrableProductDefinition_Lodipin-10mg-Capsule-GR-APD">Bundle: type = collection</a></li></ul><p><b>role</b>: <span title="Codes:{https://spor.ema.europa.eu/v1/lists/100000072050 100000072072}">Active</span></p><blockquote><p><b>substance</b></p><h3>Codes</h3><table class="grid"><tr><td style="display: none">-</td><td><b>Concept</b></td></tr><tr><td style="display: none">*</td><td><span title="Codes:{https://spor.ema.europa.eu/v2/SubstanceDefinition 100000090079}">Amlodipine besilate</span></td></tr></table><blockquote><p><b>strength</b></p><p><b>presentation</b>: 13.889 milligram(s)<span style="background: LightGoldenRodYellow"> (Details: Unit of Measurement EMA  code100000110655 = 'milligram(s)')</span>/1 Capsule<span style="background: LightGoldenRodYellow"> (Details: Unit of Presentation EMA  code200000002113 = 'Capsule')</span></p><blockquote><p><b>referenceStrength</b></p><h3>Substances</h3><table class="grid"><tr><td style="display: none">-</td><td><b>Concept</b></td></tr><tr><td style="display: none">*</td><td><span title="Codes:{https://spor.ema.europa.eu/v2/SubstanceDefinition 100000085259}">Amlodipine</span></td></tr></table><p><b>strength</b>: 10 milligram(s)<span style="background: LightGoldenRodYellow"> (Details: Unit of Measurement EMA  code100000110655 = 'milligram(s)')</span>/1 Capsule<span style="background: LightGoldenRodYellow"> (Details: Unit of Presentation EMA  code200000002113 = 'Capsule')</span></p></blockquote></blockquote></blockquote></div>
        </text>
        <status value="active"/>
        <for>
          <reference value="MedicinalProductDefinition/Lodipin-10mg-Capsule-GR-MPD"/>
        </for>
        <for>
          <reference value="ManufacturedItemDefinition/Lodipin-10mg-Capsule-GR-MID"/>
        </for>
        <for>
          <reference value="AdministrableProductDefinition/Lodipin-10mg-Capsule-GR-APD"/>
        </for>
        <role>
          <coding>
            <system value="https://spor.ema.europa.eu/v1/lists/100000072050"/>
            <code value="100000072072"/>
            <display value="Active"/>
          </coding>
        </role>
        <substance>
          <code>
            <concept>
              <coding>
                <system value="https://spor.ema.europa.eu/v2/SubstanceDefinition"/>
                <code value="100000090079"/>
                <display value="Amlodipine besilate"/>
              </coding>
            </concept>
          </code>
          <strength>
            <presentationRatio>
              <numerator>
                <value value="13.889"/>
                <unit value="milligram(s)"/>
                <system value="https://spor.ema.europa.eu/v1/lists/100000110633"/>
                <code value="100000110655"/>
              </numerator>
              <denominator>
                <value value="1"/>
                <unit value="Capsule"/>
                <system value="https://spor.ema.europa.eu/v1/lists/200000000014"/>
                <code value="200000002113"/>
              </denominator>
            </presentationRatio>
            <referenceStrength>
              <substance>
                <concept>
                  <coding>
                    <system value="https://spor.ema.europa.eu/v2/SubstanceDefinition"/>
                    <code value="100000085259"/>
                    <display value="Amlodipine"/>
                  </coding>
                </concept>
              </substance>
              <strengthRatio>
                <numerator>
                  <value value="10"/>
                  <unit value="milligram(s)"/>
                  <system value="https://spor.ema.europa.eu/v1/lists/100000110633"/>
                  <code value="100000110655"/>
                </numerator>
                <denominator>
                  <value value="1"/>
                  <unit value="Capsule"/>
                  <system value="https://spor.ema.europa.eu/v1/lists/200000000014"/>
                  <code value="200000002113"/>
                </denominator>
              </strengthRatio>
            </referenceStrength>
          </strength>
        </substance>
      </Ingredient>
    </resource>
  </entry>
  <entry>
    <fullUrl value="https://hl7-eu.github.io/unicom-ig/branches/mpd-r4b/PackagedProductDefinition-Lodipin-10mg-Capsule-GR-PPD-2802584402021"/>
    <resource>
      <PackagedProductDefinition>
        <id value="Lodipin-10mg-Capsule-GR-PPD-2802584402021"/>
        <meta>
          <profile value="http://unicom-project.eu/fhir/StructureDefinition/PPLPackagedProductDefinition"/>
        </meta>
        <text>
          <status value="generated"/><div xmlns="http://www.w3.org/1999/xhtml"><a name="PackagedProductDefinition_Lodipin-10mg-Capsule-GR-PPD-2802584402021"> </a><p class="res-header-id"><b>Generated Narrative: PackagedProductDefinition Lodipin-10mg-Capsule-GR-PPD-2802584402021</b></p><a name="Lodipin-10mg-Capsule-GR-PPD-2802584402021"> </a><a name="hcLodipin-10mg-Capsule-GR-PPD-2802584402021"> </a><a name="Lodipin-10mg-Capsule-GR-PPD-2802584402021-en-US"> </a><p><b>identifier</b>: <code>http://ema.europa.eu/example/pcid</code>/GR-100005016-2584402-2802584402021</p><p><b>packageFor</b>: <a href="Bundle-016-Lodipin-10mg-Capsule-GR-FullProduct.html#MedicinalProductDefinition_Lodipin-10mg-Capsule-GR-MPD">Bundle: type = collection</a></p><p><b>containedItemQuantity</b>: 14 Capsule<span style="background: LightGoldenRodYellow"> (Details: Unit of Presentation EMA  code200000002113 = 'Capsule')</span></p><p><b>description</b>: </p><div><p>14 κάψουλες ή 30 κάψουλες συσκευασμένες σε 2 blister x 7 caps και 3 blister x 10 caps
αντίστοιχα, από PVC/aluminium foil (πάνω στο οποίο είναι τυπωμένη η ημερομηνία λήξης
του προϊόντος και η παρτίδα του). To blister τοποθετείται σε κουτί από χαρτόνι, στο οποίο
είναι τυπωμένα στοιχεία LOT και EXP του προϊόντος.</p>
</div><h3>MarketingStatuses</h3><table class="grid"><tr><td style="display: none">-</td><td><b>Country</b></td><td><b>Status</b></td></tr><tr><td style="display: none">*</td><td><span title="Codes:{https://spor.ema.europa.eu/v1/lists/100000000002 100000000406}">Hellenic Republic</span></td><td><span title="Codes:{https://spor.ema.europa.eu/v1/lists/100000072052 100000072083}">Marketed</span></td></tr></table><blockquote><p><b>packaging</b></p><p><b>type</b>: <span title="Codes:{https://spor.ema.europa.eu/v1/lists/100000073346 100000073498}">Box</span></p><p><b>quantity</b>: 1</p><p><b>material</b>: <span title="Codes:{https://spor.ema.europa.eu/v1/lists/200000003199 200000003529}">Cardboard</span></p><blockquote><p><b>packaging</b></p></blockquote></blockquote></div>
        </text>
        <identifier>
          <system value="http://ema.europa.eu/example/pcid"/>
          <value value="GR-100005016-2584402-2802584402021"/>
        </identifier>
        <packageFor>
          <reference value="MedicinalProductDefinition/Lodipin-10mg-Capsule-GR-MPD"/>
        </packageFor>
        <containedItemQuantity>
          <value value="14"/>
          <unit value="Capsule"/>
          <system value="https://spor.ema.europa.eu/v1/lists/200000000014"/>
          <code value="200000002113"/>
        </containedItemQuantity>
        <description value="14 κάψουλες ή 30 κάψουλες συσκευασμένες σε 2 blister x 7 caps και 3 blister x 10 caps&#xA;αντίστοιχα, από PVC/aluminium foil (πάνω στο οποίο είναι τυπωμένη η ημερομηνία λήξης &#xA;του προϊόντος και η παρτίδα του). To blister τοποθετείται σε κουτί από χαρτόνι, στο οποίο &#xA;είναι τυπωμένα στοιχεία LOT και EXP του προϊόντος."/>
        <marketingStatus>
          <country>
            <coding>
              <system value="https://spor.ema.europa.eu/v1/lists/100000000002"/>
              <code value="100000000406"/>
              <display value="Hellenic Republic"/>
            </coding>
          </country>
          <status>
            <coding>
              <system value="https://spor.ema.europa.eu/v1/lists/100000072052"/>
              <code value="100000072083"/>
              <display value="Marketed"/>
            </coding>
          </status>
        </marketingStatus>
        <packaging>
          <type>
            <coding>
              <system value="https://spor.ema.europa.eu/v1/lists/100000073346"/>
              <code value="100000073498"/>
              <display value="Box"/>
            </coding>
          </type>
          <quantity value="1"/>
          <material>
            <coding>
              <system value="https://spor.ema.europa.eu/v1/lists/200000003199"/>
              <code value="200000003529"/>
              <display value="Cardboard"/>
            </coding>
          </material>
          <packaging>
            <type>
              <coding>
                <system value="https://spor.ema.europa.eu/v1/lists/100000073346"/>
                <code value="100000073496"/>
                <display value="Blister"/>
              </coding>
            </type>
            <quantity value="2"/>
            <material>
              <coding>
                <system value="https://spor.ema.europa.eu/v1/lists/200000003199"/>
                <code value="200000003222"/>
                <display value="PolyVinyl Chloride"/>
              </coding>
            </material>
            <material>
              <coding>
                <system value="https://spor.ema.europa.eu/v1/lists/200000003199"/>
                <code value="200000003225"/>
                <display value="PolyVinylidene Chloride"/>
              </coding>
            </material>
            <material>
              <coding>
                <system value="https://spor.ema.europa.eu/v1/lists/200000003199"/>
                <code value="200000003200"/>
                <display value="Aluminium"/>
              </coding>
            </material>
            <containedItem>
              <item>
                <reference>
                  <reference value="ManufacturedItemDefinition/Lodipin-10mg-Capsule-GR-MID"/>
                </reference>
              </item>
              <amount>
                <value value="7"/>
              </amount>
            </containedItem>
          </packaging>
        </packaging>
      </PackagedProductDefinition>
    </resource>
  </entry>
  <entry>
    <fullUrl value="https://hl7-eu.github.io/unicom-ig/branches/mpd-r4b/PackagedProductDefinition-Lodipin-10mg-Capsule-GR-PPD-2802584402038"/>
    <resource>
      <PackagedProductDefinition>
        <id value="Lodipin-10mg-Capsule-GR-PPD-2802584402038"/>
        <meta>
          <profile value="http://unicom-project.eu/fhir/StructureDefinition/PPLPackagedProductDefinition"/>
        </meta>
        <text>
          <status value="generated"/><div xmlns="http://www.w3.org/1999/xhtml"><a name="PackagedProductDefinition_Lodipin-10mg-Capsule-GR-PPD-2802584402038"> </a><p class="res-header-id"><b>Generated Narrative: PackagedProductDefinition Lodipin-10mg-Capsule-GR-PPD-2802584402038</b></p><a name="Lodipin-10mg-Capsule-GR-PPD-2802584402038"> </a><a name="hcLodipin-10mg-Capsule-GR-PPD-2802584402038"> </a><a name="Lodipin-10mg-Capsule-GR-PPD-2802584402038-en-US"> </a><p><b>identifier</b>: <code>http://ema.europa.eu/example/pcid</code>/GR-100005016-2584402-2802584402038</p><p><b>packageFor</b>: <a href="Bundle-016-Lodipin-10mg-Capsule-GR-FullProduct.html#MedicinalProductDefinition_Lodipin-10mg-Capsule-GR-MPD">Bundle: type = collection</a></p><p><b>containedItemQuantity</b>: 30 Capsule<span style="background: LightGoldenRodYellow"> (Details: Unit of Presentation EMA  code200000002113 = 'Capsule')</span></p><p><b>description</b>: </p><div><p>14 κάψουλες ή 30 κάψουλες συσκευασμένες σε 2 blister x 7 caps και 3 blister x 10 caps
αντίστοιχα, από PVC/aluminium foil (πάνω στο οποίο είναι τυπωμένη η ημερομηνία λήξης
του προϊόντος και η παρτίδα του). To blister τοποθετείται σε κουτί από χαρτόνι, στο οποίο
είναι τυπωμένα στοιχεία LOT και EXP του προϊόντος.</p>
</div><h3>MarketingStatuses</h3><table class="grid"><tr><td style="display: none">-</td><td><b>Country</b></td><td><b>Status</b></td></tr><tr><td style="display: none">*</td><td><span title="Codes:{https://spor.ema.europa.eu/v1/lists/100000000002 100000000406}">Hellenic Republic</span></td><td><span title="Codes:{https://spor.ema.europa.eu/v1/lists/100000072052 100000072083}">Marketed</span></td></tr></table><blockquote><p><b>packaging</b></p><p><b>type</b>: <span title="Codes:{https://spor.ema.europa.eu/v1/lists/100000073346 100000073498}">Box</span></p><p><b>quantity</b>: 1</p><p><b>material</b>: <span title="Codes:{https://spor.ema.europa.eu/v1/lists/200000003199 200000003529}">Cardboard</span></p><blockquote><p><b>packaging</b></p></blockquote></blockquote></div>
        </text>
        <identifier>
          <system value="http://ema.europa.eu/example/pcid"/>
          <value value="GR-100005016-2584402-2802584402038"/>
        </identifier>
        <packageFor>
          <reference value="MedicinalProductDefinition/Lodipin-10mg-Capsule-GR-MPD"/>
        </packageFor>
        <containedItemQuantity>
          <value value="30"/>
          <unit value="Capsule"/>
          <system value="https://spor.ema.europa.eu/v1/lists/200000000014"/>
          <code value="200000002113"/>
        </containedItemQuantity>
        <description value="14 κάψουλες ή 30 κάψουλες συσκευασμένες σε 2 blister x 7 caps και 3 blister x 10 caps&#xA;αντίστοιχα, από PVC/aluminium foil (πάνω στο οποίο είναι τυπωμένη η ημερομηνία λήξης &#xA;του προϊόντος και η παρτίδα του). To blister τοποθετείται σε κουτί από χαρτόνι, στο οποίο &#xA;είναι τυπωμένα στοιχεία LOT και EXP του προϊόντος."/>
        <marketingStatus>
          <country>
            <coding>
              <system value="https://spor.ema.europa.eu/v1/lists/100000000002"/>
              <code value="100000000406"/>
              <display value="Hellenic Republic"/>
            </coding>
          </country>
          <status>
            <coding>
              <system value="https://spor.ema.europa.eu/v1/lists/100000072052"/>
              <code value="100000072083"/>
              <display value="Marketed"/>
            </coding>
          </status>
        </marketingStatus>
        <packaging>
          <type>
            <coding>
              <system value="https://spor.ema.europa.eu/v1/lists/100000073346"/>
              <code value="100000073498"/>
              <display value="Box"/>
            </coding>
          </type>
          <quantity value="1"/>
          <material>
            <coding>
              <system value="https://spor.ema.europa.eu/v1/lists/200000003199"/>
              <code value="200000003529"/>
              <display value="Cardboard"/>
            </coding>
          </material>
          <packaging>
            <type>
              <coding>
                <system value="https://spor.ema.europa.eu/v1/lists/100000073346"/>
                <code value="100000073496"/>
                <display value="Blister"/>
              </coding>
            </type>
            <quantity value="3"/>
            <material>
              <coding>
                <system value="https://spor.ema.europa.eu/v1/lists/200000003199"/>
                <code value="200000003222"/>
                <display value="PolyVinyl Chloride"/>
              </coding>
            </material>
            <material>
              <coding>
                <system value="https://spor.ema.europa.eu/v1/lists/200000003199"/>
                <code value="200000003200"/>
                <display value="Aluminium"/>
              </coding>
            </material>
            <containedItem>
              <item>
                <reference>
                  <reference value="ManufacturedItemDefinition/Lodipin-10mg-Capsule-GR-MID"/>
                </reference>
              </item>
              <amount>
                <value value="10"/>
              </amount>
            </containedItem>
          </packaging>
        </packaging>
      </PackagedProductDefinition>
    </resource>
  </entry>
</Bundle>