<?xml version="1.0" encoding="UTF-8"?>

<Bundle xmlns="http://hl7.org/fhir">
  <id value="017-ImovaxPolio-EE-FullProduct"/>
  <type value="collection"/>
  <entry>
    <fullUrl value="https://hl7-eu.github.io/unicom-ig/branches/mpd-r4b/MedicinalProductDefinition-ImovaxPolio-EE-IS-MedicinalProductDefinition"/>
    <resource>
      <MedicinalProductDefinition>
        <id value="ImovaxPolio-EE-IS-MedicinalProductDefinition"/>
        <meta>
          <profile value="http://unicom-project.eu/fhir/StructureDefinition/PPLMedicinalProductDefinition"/>
        </meta>
        <text>
          <status value="generated"/><div xmlns="http://www.w3.org/1999/xhtml"><a name="MedicinalProductDefinition_ImovaxPolio-EE-IS-MedicinalProductDefinition"> </a><p class="res-header-id"><b>Generated Narrative: MedicinalProductDefinition ImovaxPolio-EE-IS-MedicinalProductDefinition</b></p><a name="ImovaxPolio-EE-IS-MedicinalProductDefinition"> </a><a name="hcImovaxPolio-EE-IS-MedicinalProductDefinition"> </a><a name="ImovaxPolio-EE-IS-MedicinalProductDefinition-en-US"> </a><p><b>identifier</b>: <code>http://ema.europa.eu/fhir/mpId</code>/EE-100010589-1025985</p><p><b>domain</b>: <span title="Codes:{https://spor.ema.europa.eu/v1/lists/100000000004 100000000012}">Human use</span></p><p><b>status</b>: <span title="Codes:{https://spor.ema.europa.eu/v1/lists/200000005003 200000005004}">Current</span></p><p><b>combinedPharmaceuticalDoseForm</b>: <span title="Codes:{https://spor.ema.europa.eu/v1/lists/200000000007 100000074050}">Suspension for injection in pre-filled pen</span></p><p><b>indication</b>: </p><div><p>Poliomüeliidi ennetamine (esmane vaktsineerimine ja revaktsineerimine) väikelastel, lastel ja
täiskasvanutel.</p>
</div><p><b>legalStatusOfSupply</b>: <span title="Codes:{https://spor.ema.europa.eu/v1/lists/100000072051 100000072084}">Medicinal product subject to medical prescription</span></p><p><b>classification</b>: <span title="Codes:{https://spor.ema.europa.eu/v1/lists/100000093533 100000096580}">poliomyelitis, trivalent, inactivated, whole virus</span>, <span title="Codes:{http://www.whocc.no/atc J07BF03}">poliomyelitis, trivalent, inactivated, whole virus</span></p><blockquote><p><b>name</b></p><p><b>productName</b>: Imovax Polio, süstesuspensioon süstlis</p><blockquote><p><b>part</b></p><p><b>part</b>: Imovax Polio</p><p><b>type</b>: <span title="Codes:{https://spor.ema.europa.eu/v1/lists/220000000000 220000000002}">Invented name part</span></p></blockquote><blockquote><p><b>part</b></p><p><b>part</b>: süstesuspensioon süstlis</p><p><b>type</b>: <span title="Codes:{https://spor.ema.europa.eu/v1/lists/220000000000 220000000005}">Pharmaceutical dose form part</span></p></blockquote><h3>Usages</h3><table class="grid"><tr><td style="display: none">-</td><td><b>Country</b></td><td><b>Language</b></td></tr><tr><td style="display: none">*</td><td><span title="Codes:{https://spor.ema.europa.eu/v1/lists/100000000002 100000000388}">Estonia</span></td><td><span title="Codes:{urn:ietf:bcp:47 et}">Estonian</span></td></tr></table></blockquote></div>
        </text>
        <identifier>
          <system value="http://ema.europa.eu/fhir/mpId"/>
          <value value="EE-100010589-1025985"/>
        </identifier>
        <domain>
          <coding>
            <system value="https://spor.ema.europa.eu/v1/lists/100000000004"/>
            <code value="100000000012"/>
            <display value="Human use"/>
          </coding>
        </domain>
        <status>
          <coding>
            <system value="https://spor.ema.europa.eu/v1/lists/200000005003"/>
            <code value="200000005004"/>
            <display value="Current"/>
          </coding>
        </status>
        <combinedPharmaceuticalDoseForm>
          <coding>
            <system value="https://spor.ema.europa.eu/v1/lists/200000000007"/>
            <code value="100000074050"/>
            <display value="Suspension for injection in pre-filled pen"/>
          </coding>
        </combinedPharmaceuticalDoseForm>
        <indication value="Poliomüeliidi ennetamine (esmane vaktsineerimine ja revaktsineerimine) väikelastel, lastel ja&#xD;&#xA;täiskasvanutel."/>
        <legalStatusOfSupply>
          <coding>
            <system value="https://spor.ema.europa.eu/v1/lists/100000072051"/>
            <code value="100000072084"/>
            <display value="Medicinal product subject to medical prescription"/>
          </coding>
        </legalStatusOfSupply>
        <classification>
          <coding>
            <system value="https://spor.ema.europa.eu/v1/lists/100000093533"/>
            <code value="100000096580"/>
            <display value="poliomyelitis, trivalent, inactivated, whole virus"/>
          </coding>
        </classification>
        <classification>
          <coding>
            <system value="http://www.whocc.no/atc"/>
            <code value="J07BF03"/>
            <display value="poliomyelitis, trivalent, inactivated, whole virus"/>
          </coding>
        </classification>
        <name>
          <productName value="Imovax Polio, süstesuspensioon süstlis"/>
          <part>
            <part value="Imovax Polio"/>
            <type>
              <coding>
                <system value="https://spor.ema.europa.eu/v1/lists/220000000000"/>
                <code value="220000000002"/>
                <display value="Invented name part"/>
              </coding>
            </type>
          </part>
          <part>
            <part value="süstesuspensioon süstlis"/>
            <type>
              <coding>
                <system value="https://spor.ema.europa.eu/v1/lists/220000000000"/>
                <code value="220000000005"/>
                <display value="Pharmaceutical dose form part"/>
              </coding>
            </type>
          </part>
          <usage>
            <country>
              <coding>
                <system value="https://spor.ema.europa.eu/v1/lists/100000000002"/>
                <code value="100000000388"/>
                <display value="Estonia"/>
              </coding>
            </country>
            <language>
              <coding>
                <system value="urn:ietf:bcp:47"/>
                <code value="et"/>
                <display value="Estonian"/>
              </coding>
            </language>
          </usage>
        </name>
      </MedicinalProductDefinition>
    </resource>
  </entry>
  <entry>
    <fullUrl value="https://hl7-eu.github.io/unicom-ig/branches/mpd-r4b/RegulatedAuthorization-ImovaxPolio-EE-IS-RegulatedAuthorization"/>
    <resource>
      <RegulatedAuthorization>
        <id value="ImovaxPolio-EE-IS-RegulatedAuthorization"/>
        <meta>
          <profile value="http://unicom-project.eu/fhir/StructureDefinition/PPLRegulatedAuthorization"/>
        </meta>
        <text>
          <status value="generated"/><div xmlns="http://www.w3.org/1999/xhtml"><a name="RegulatedAuthorization_ImovaxPolio-EE-IS-RegulatedAuthorization"> </a><p class="res-header-id"><b>Generated Narrative: RegulatedAuthorization ImovaxPolio-EE-IS-RegulatedAuthorization</b></p><a name="ImovaxPolio-EE-IS-RegulatedAuthorization"> </a><a name="hcImovaxPolio-EE-IS-RegulatedAuthorization"> </a><a name="ImovaxPolio-EE-IS-RegulatedAuthorization-en-US"> </a><p><b>identifier</b>: 301700</p><p><b>subject</b>: <a href="Bundle-017-ImovaxPolio-EE-FullProduct.html#MedicinalProductDefinition_ImovaxPolio-EE-IS-MedicinalProductDefinition">Bundle: type = collection</a></p><p><b>type</b>: <span title="Codes:{https://spor.ema.europa.eu/v1/lists/220000000060 220000000061}">Marketing Authorisation</span></p><p><b>region</b>: <span title="Codes:{https://spor.ema.europa.eu/v1/lists/100000000002 100000000388}">Estonia</span></p><p><b>status</b>: <span title="Codes:{https://spor.ema.europa.eu/v1/lists/100000072049 100000072099}">Valid</span></p><p><b>statusDate</b>: 2000-02-25</p><p><b>holder</b>: <a href="Bundle-017-ImovaxPolio-EE-FullProduct.html#Organization_LOC-100010589-SanofiPasteur">Bundle: type = collection</a></p></div>
        </text>
        <identifier>
          <value value="301700"/>
        </identifier>
        <subject>
          <reference value="MedicinalProductDefinition/ImovaxPolio-EE-IS-MedicinalProductDefinition"/>
        </subject>
        <type>
          <coding>
            <system value="https://spor.ema.europa.eu/v1/lists/220000000060"/>
            <code value="220000000061"/>
            <display value="Marketing Authorisation"/>
          </coding>
        </type>
        <region>
          <coding>
            <system value="https://spor.ema.europa.eu/v1/lists/100000000002"/>
            <code value="100000000388"/>
            <display value="Estonia"/>
          </coding>
        </region>
        <status>
          <coding>
            <system value="https://spor.ema.europa.eu/v1/lists/100000072049"/>
            <code value="100000072099"/>
            <display value="Valid"/>
          </coding>
        </status>
        <statusDate value="2000-02-25"/>
        <holder>
          <reference value="Organization/LOC-100010589-SanofiPasteur"/>
        </holder>
      </RegulatedAuthorization>
    </resource>
  </entry>
  <entry>
    <fullUrl value="https://hl7-eu.github.io/unicom-ig/branches/mpd-r4b/Organization-LOC-100010589-SanofiPasteur"/>
    <resource>
      <Organization>
        <id value="LOC-100010589-SanofiPasteur"/>
        <meta>
          <profile value="http://unicom-project.eu/fhir/StructureDefinition/PPLOrganization"/>
        </meta>
        <text>
          <status value="generated"/><div xmlns="http://www.w3.org/1999/xhtml"><a name="Organization_LOC-100010589-SanofiPasteur"> </a><p class="res-header-id"><b>Generated Narrative: Organization LOC-100010589-SanofiPasteur</b></p><a name="LOC-100010589-SanofiPasteur"> </a><a name="hcLOC-100010589-SanofiPasteur"> </a><a name="LOC-100010589-SanofiPasteur-en-US"> </a><p><b>identifier</b>: <code>https://spor.ema.europa.eu/v1/locations</code>/LOC-100010589</p><p><b>name</b>: Sanofi Pasteur</p></div>
        </text>
        <identifier>
          <system value="https://spor.ema.europa.eu/v1/locations"/>
          <value value="LOC-100010589"/>
        </identifier>
        <name value="Sanofi Pasteur"/>
      </Organization>
    </resource>
  </entry>
  <entry>
    <fullUrl value="https://hl7-eu.github.io/unicom-ig/branches/mpd-r4b/AdministrableProductDefinition-ImovaxPolio-EE-IS-AdminProdDef"/>
    <resource>
      <AdministrableProductDefinition>
        <id value="ImovaxPolio-EE-IS-AdminProdDef"/>
        <meta>
          <profile value="http://unicom-project.eu/fhir/StructureDefinition/PPLAdministrableProductDefinition"/>
        </meta>
        <text>
          <status value="generated"/><div xmlns="http://www.w3.org/1999/xhtml"><a name="AdministrableProductDefinition_ImovaxPolio-EE-IS-AdminProdDef"> </a><p class="res-header-id"><b>Generated Narrative: AdministrableProductDefinition ImovaxPolio-EE-IS-AdminProdDef</b></p><a name="ImovaxPolio-EE-IS-AdminProdDef"> </a><a name="hcImovaxPolio-EE-IS-AdminProdDef"> </a><a name="ImovaxPolio-EE-IS-AdminProdDef-en-US"> </a><p><b>status</b>: Active</p><p><b>formOf</b>: <a href="Bundle-017-ImovaxPolio-EE-FullProduct.html#MedicinalProductDefinition_ImovaxPolio-EE-IS-MedicinalProductDefinition">Bundle: type = collection</a></p><p><b>administrableDoseForm</b>: <span title="Codes:{https://spor.ema.europa.eu/v1/lists/200000000004 100000073864}">Suspension for injection</span></p><p><b>producedFrom</b>: <a href="Bundle-017-ImovaxPolio-EE-FullProduct.html#ManufacturedItemDefinition_ImovaxPolio-EE-IS-ManufacturedItemDefinition">Bundle: type = collection</a></p><h3>RouteOfAdministrations</h3><table class="grid"><tr><td style="display: none">-</td><td><b>Code</b></td></tr><tr><td style="display: none">*</td><td><span title="Codes:{https://spor.ema.europa.eu/v1/lists/100000073345 100000073600}">Intramuscular use</span></td></tr></table></div>
        </text>
        <status value="active"/>
        <formOf>
          <reference value="MedicinalProductDefinition/ImovaxPolio-EE-IS-MedicinalProductDefinition"/>
        </formOf>
        <administrableDoseForm>
          <coding>
            <system value="https://spor.ema.europa.eu/v1/lists/200000000004"/>
            <code value="100000073864"/>
            <display value="Suspension for injection"/>
          </coding>
        </administrableDoseForm>
        <producedFrom>
          <reference value="ManufacturedItemDefinition/ImovaxPolio-EE-IS-ManufacturedItemDefinition"/>
        </producedFrom>
        <routeOfAdministration>
          <code>
            <coding>
              <system value="https://spor.ema.europa.eu/v1/lists/100000073345"/>
              <code value="100000073600"/>
              <display value="Intramuscular use"/>
            </coding>
          </code>
        </routeOfAdministration>
      </AdministrableProductDefinition>
    </resource>
  </entry>
  <entry>
    <fullUrl value="https://hl7-eu.github.io/unicom-ig/branches/mpd-r4b/PackagedProductDefinition-ImovaxPolio-EE-IS-PackagedProductDefinition"/>
    <resource>
      <PackagedProductDefinition>
        <id value="ImovaxPolio-EE-IS-PackagedProductDefinition"/>
        <meta>
          <profile value="http://unicom-project.eu/fhir/StructureDefinition/PPLPackagedProductDefinition"/>
        </meta>
        <text>
          <status value="generated"/><div xmlns="http://www.w3.org/1999/xhtml"><a name="PackagedProductDefinition_ImovaxPolio-EE-IS-PackagedProductDefinition"> </a><p class="res-header-id"><b>Generated Narrative: PackagedProductDefinition ImovaxPolio-EE-IS-PackagedProductDefinition</b></p><a name="ImovaxPolio-EE-IS-PackagedProductDefinition"> </a><a name="hcImovaxPolio-EE-IS-PackagedProductDefinition"> </a><a name="ImovaxPolio-EE-IS-PackagedProductDefinition-en-US"> </a><p><b>identifier</b>: <code>http://ema.europa.eu/example/pcid</code>/?ngen-9?</p><p><b>packageFor</b>: <a href="Bundle-017-ImovaxPolio-EE-FullProduct.html#MedicinalProductDefinition_ImovaxPolio-EE-IS-MedicinalProductDefinition">Bundle: type = collection</a></p><p><b>containedItemQuantity</b>: 1 Pen<span style="background: LightGoldenRodYellow"> (Details: Unit of Presentation EMA  code200000002135 = 'Pen')</span></p><p><b>description</b>: </p><div><p>0,5 ml süstesuspensiooni eeltäidetud süstlas (I tüüpi klaas), mis on varustatud kolbkorgiga
(klorobutüülist) – karbis 1 tk.</p>
</div><h3>MarketingStatuses</h3><table class="grid"><tr><td style="display: none">-</td><td><b>Country</b></td><td><b>Status</b></td></tr><tr><td style="display: none">*</td><td><span title="Codes:{https://spor.ema.europa.eu/v1/lists/100000000002 100000000388}">Estonia</span></td><td><span title="Codes:{https://spor.ema.europa.eu/v1/lists/100000072052 100000072083}">Marketed</span></td></tr></table><blockquote><p><b>packaging</b></p><p><b>type</b>: <span title="Codes:{https://spor.ema.europa.eu/v1/lists/100000073346 100000073498}">Box</span></p><p><b>quantity</b>: 1</p><p><b>material</b>: <span title="Codes:{https://spor.ema.europa.eu/v1/lists/200000003199 200000003529}">Cardboard</span></p><blockquote><p><b>packaging</b></p></blockquote></blockquote></div>
        </text>
        <identifier>
          <system value="http://ema.europa.eu/example/pcid"/>
        </identifier>
        <packageFor>
          <reference value="MedicinalProductDefinition/ImovaxPolio-EE-IS-MedicinalProductDefinition"/>
        </packageFor>
        <containedItemQuantity>
          <value value="1"/>
          <unit value="Pen"/>
          <system value="https://spor.ema.europa.eu/v1/lists/200000000014"/>
          <code value="200000002135"/>
        </containedItemQuantity>
        <description value="0,5 ml süstesuspensiooni eeltäidetud süstlas (I tüüpi klaas), mis on varustatud kolbkorgiga&#xD;&#xA;(klorobutüülist) – karbis 1 tk."/>
        <marketingStatus>
          <country>
            <coding>
              <system value="https://spor.ema.europa.eu/v1/lists/100000000002"/>
              <code value="100000000388"/>
              <display value="Estonia"/>
            </coding>
          </country>
          <status>
            <coding>
              <system value="https://spor.ema.europa.eu/v1/lists/100000072052"/>
              <code value="100000072083"/>
              <display value="Marketed"/>
            </coding>
          </status>
        </marketingStatus>
        <packaging>
          <type>
            <coding>
              <system value="https://spor.ema.europa.eu/v1/lists/100000073346"/>
              <code value="100000073498"/>
              <display value="Box"/>
            </coding>
          </type>
          <quantity value="1"/>
          <material>
            <coding>
              <system value="https://spor.ema.europa.eu/v1/lists/200000003199"/>
              <code value="200000003529"/>
              <display value="Cardboard"/>
            </coding>
          </material>
          <packaging>
            <type>
              <coding>
                <system value="https://spor.ema.europa.eu/v1/lists/100000073346"/>
                <code value="100000073543"/>
                <display value="Prefilled pen"/>
              </coding>
            </type>
            <quantity value="1"/>
            <material>
              <coding>
                <system value="https://spor.ema.europa.eu/v1/lists/200000003199"/>
                <code value="200000003203"/>
                <display value="Glass"/>
              </coding>
            </material>
            <containedItem>
              <item>
                <reference>
                  <reference value="ManufacturedItemDefinition/ImovaxPolio-EE-IS-ManufacturedItemDefinition"/>
                </reference>
              </item>
              <amount>
                <value value="1"/>
                <unit value="Pen"/>
                <system value="https://spor.ema.europa.eu/v1/lists/200000000014"/>
                <code value="200000002135"/>
              </amount>
            </containedItem>
          </packaging>
        </packaging>
      </PackagedProductDefinition>
    </resource>
  </entry>
  <entry>
    <fullUrl value="https://hl7-eu.github.io/unicom-ig/branches/mpd-r4b/ManufacturedItemDefinition-ImovaxPolio-EE-IS-ManufacturedItemDefinition"/>
    <resource>
      <ManufacturedItemDefinition>
        <id value="ImovaxPolio-EE-IS-ManufacturedItemDefinition"/>
        <meta>
          <profile value="http://unicom-project.eu/fhir/StructureDefinition/PPLManufacturedItemDefinition"/>
        </meta>
        <text>
          <status value="generated"/><div xmlns="http://www.w3.org/1999/xhtml"><a name="ManufacturedItemDefinition_ImovaxPolio-EE-IS-ManufacturedItemDefinition"> </a><p class="res-header-id"><b>Generated Narrative: ManufacturedItemDefinition ImovaxPolio-EE-IS-ManufacturedItemDefinition</b></p><a name="ImovaxPolio-EE-IS-ManufacturedItemDefinition"> </a><a name="hcImovaxPolio-EE-IS-ManufacturedItemDefinition"> </a><a name="ImovaxPolio-EE-IS-ManufacturedItemDefinition-en-US"> </a><p><b>status</b>: Active</p><p><b>manufacturedDoseForm</b>: <span title="Codes:{https://spor.ema.europa.eu/v1/lists/200000000004 100000073864}">Suspension for injection</span></p><p><b>unitOfPresentation</b>: <span title="Codes:{https://spor.ema.europa.eu/v1/lists/200000000014 200000002135}">Pen</span></p></div>
        </text>
        <status value="active"/>
        <manufacturedDoseForm>
          <coding>
            <system value="https://spor.ema.europa.eu/v1/lists/200000000004"/>
            <code value="100000073864"/>
            <display value="Suspension for injection"/>
          </coding>
        </manufacturedDoseForm>
        <unitOfPresentation>
          <coding>
            <system value="https://spor.ema.europa.eu/v1/lists/200000000014"/>
            <code value="200000002135"/>
            <display value="Pen"/>
          </coding>
        </unitOfPresentation>
      </ManufacturedItemDefinition>
    </resource>
  </entry>
  <entry>
    <fullUrl value="https://hl7-eu.github.io/unicom-ig/branches/mpd-r4b/Ingredient-ImovaxPolio-EE-IS-Ingredient-1"/>
    <resource>
      <Ingredient>
        <id value="ImovaxPolio-EE-IS-Ingredient-1"/>
        <meta>
          <profile value="http://unicom-project.eu/fhir/StructureDefinition/PPLIngredient"/>
        </meta>
        <text>
          <status value="generated"/><div xmlns="http://www.w3.org/1999/xhtml"><a name="Ingredient_ImovaxPolio-EE-IS-Ingredient-1"> </a><p class="res-header-id"><b>Generated Narrative: Ingredient ImovaxPolio-EE-IS-Ingredient-1</b></p><a name="ImovaxPolio-EE-IS-Ingredient-1"> </a><a name="hcImovaxPolio-EE-IS-Ingredient-1"> </a><a name="ImovaxPolio-EE-IS-Ingredient-1-en-US"> </a><p><b>status</b>: Active</p><p><b>for</b>: </p><ul><li><a href="Bundle-017-ImovaxPolio-EE-FullProduct.html#MedicinalProductDefinition_ImovaxPolio-EE-IS-MedicinalProductDefinition">Bundle: type = collection</a></li><li><a href="Bundle-017-ImovaxPolio-EE-FullProduct.html#ManufacturedItemDefinition_ImovaxPolio-EE-IS-ManufacturedItemDefinition">Bundle: type = collection</a></li><li><a href="Bundle-017-ImovaxPolio-EE-FullProduct.html#AdministrableProductDefinition_ImovaxPolio-EE-IS-AdminProdDef">Bundle: type = collection</a></li></ul><p><b>role</b>: <span title="Codes:{https://spor.ema.europa.eu/v1/lists/100000072050 100000072072}">Active</span></p><blockquote><p><b>substance</b></p><h3>Codes</h3><table class="grid"><tr><td style="display: none">-</td><td><b>Concept</b></td></tr><tr><td style="display: none">*</td><td><span title="Codes:{https://spor.ema.europa.eu/v2/SubstanceDefinition 100000089279}">Poliovirus (inactivated) type 1 (Mahoney strain)</span></td></tr></table><blockquote><p><b>strength</b></p><p><b>presentation</b>: 29 D antigen unit(s)<span style="background: LightGoldenRodYellow"> (Details: Unit of Measurement EMA  code100000110782 = 'D antigen unit(s)')</span>/0.5 millilitre(s)<span style="background: LightGoldenRodYellow"> (Details: Unit of Measurement EMA  code100000110662 = 'millilitre(s)')</span></p><blockquote><p><b>referenceStrength</b></p><h3>Substances</h3><table class="grid"><tr><td style="display: none">-</td><td><b>Concept</b></td></tr><tr><td style="display: none">*</td><td><span title="Codes:{https://spor.ema.europa.eu/v2/SubstanceDefinition 100000089279}">Poliovirus (inactivated) type 1 (Mahoney strain)</span></td></tr></table><p><b>strength</b>: 29 D antigen unit(s)<span style="background: LightGoldenRodYellow"> (Details: Unit of Measurement EMA  code100000110782 = 'D antigen unit(s)')</span>/0.5 millilitre(s)<span style="background: LightGoldenRodYellow"> (Details: Unit of Measurement EMA  code100000110662 = 'millilitre(s)')</span></p></blockquote></blockquote></blockquote></div>
        </text>
        <status value="active"/>
        <for>
          <reference value="MedicinalProductDefinition/ImovaxPolio-EE-IS-MedicinalProductDefinition"/>
        </for>
        <for>
          <reference value="ManufacturedItemDefinition/ImovaxPolio-EE-IS-ManufacturedItemDefinition"/>
        </for>
        <for>
          <reference value="AdministrableProductDefinition/ImovaxPolio-EE-IS-AdminProdDef"/>
        </for>
        <role>
          <coding>
            <system value="https://spor.ema.europa.eu/v1/lists/100000072050"/>
            <code value="100000072072"/>
            <display value="Active"/>
          </coding>
        </role>
        <substance>
          <code>
            <concept>
              <coding>
                <system value="https://spor.ema.europa.eu/v2/SubstanceDefinition"/>
                <code value="100000089279"/>
                <display value="Poliovirus (inactivated) type 1 (Mahoney strain)"/>
              </coding>
            </concept>
          </code>
          <strength>
            <presentationRatio>
              <numerator>
                <value value="29"/>
                <unit value="D antigen unit(s)"/>
                <system value="https://spor.ema.europa.eu/v1/lists/100000110633"/>
                <code value="100000110782"/>
              </numerator>
              <denominator>
                <value value="0.5"/>
                <unit value="millilitre(s)"/>
                <system value="https://spor.ema.europa.eu/v1/lists/100000110633"/>
                <code value="100000110662"/>
              </denominator>
            </presentationRatio>
            <referenceStrength>
              <substance>
                <concept>
                  <coding>
                    <system value="https://spor.ema.europa.eu/v2/SubstanceDefinition"/>
                    <code value="100000089279"/>
                    <display value="Poliovirus (inactivated) type 1 (Mahoney strain)"/>
                  </coding>
                </concept>
              </substance>
              <strengthRatio>
                <numerator>
                  <value value="29"/>
                  <unit value="D antigen unit(s)"/>
                  <system value="https://spor.ema.europa.eu/v1/lists/100000110633"/>
                  <code value="100000110782"/>
                </numerator>
                <denominator>
                  <value value="0.5"/>
                  <unit value="millilitre(s)"/>
                  <system value="https://spor.ema.europa.eu/v1/lists/100000110633"/>
                  <code value="100000110662"/>
                </denominator>
              </strengthRatio>
            </referenceStrength>
          </strength>
        </substance>
      </Ingredient>
    </resource>
  </entry>
  <entry>
    <fullUrl value="https://hl7-eu.github.io/unicom-ig/branches/mpd-r4b/Ingredient-ImovaxPolio-EE-IS-Ingredient-2"/>
    <resource>
      <Ingredient>
        <id value="ImovaxPolio-EE-IS-Ingredient-2"/>
        <meta>
          <profile value="http://unicom-project.eu/fhir/StructureDefinition/PPLIngredient"/>
        </meta>
        <text>
          <status value="generated"/><div xmlns="http://www.w3.org/1999/xhtml"><a name="Ingredient_ImovaxPolio-EE-IS-Ingredient-2"> </a><p class="res-header-id"><b>Generated Narrative: Ingredient ImovaxPolio-EE-IS-Ingredient-2</b></p><a name="ImovaxPolio-EE-IS-Ingredient-2"> </a><a name="hcImovaxPolio-EE-IS-Ingredient-2"> </a><a name="ImovaxPolio-EE-IS-Ingredient-2-en-US"> </a><p><b>status</b>: Active</p><p><b>for</b>: </p><ul><li><a href="Bundle-017-ImovaxPolio-EE-FullProduct.html#MedicinalProductDefinition_ImovaxPolio-EE-IS-MedicinalProductDefinition">Bundle: type = collection</a></li><li><a href="Bundle-017-ImovaxPolio-EE-FullProduct.html#ManufacturedItemDefinition_ImovaxPolio-EE-IS-ManufacturedItemDefinition">Bundle: type = collection</a></li><li><a href="Bundle-017-ImovaxPolio-EE-FullProduct.html#AdministrableProductDefinition_ImovaxPolio-EE-IS-AdminProdDef">Bundle: type = collection</a></li></ul><p><b>role</b>: <span title="Codes:{https://spor.ema.europa.eu/v1/lists/100000072050 100000072072}">Active</span></p><blockquote><p><b>substance</b></p><h3>Codes</h3><table class="grid"><tr><td style="display: none">-</td><td><b>Concept</b></td></tr><tr><td style="display: none">*</td><td><span title="Codes:{https://spor.ema.europa.eu/v2/SubstanceDefinition 100000089268}">Poliovirus (inactivated) type 2 (MEF-1 strain)</span></td></tr></table><blockquote><p><b>strength</b></p><p><b>presentation</b>: 7 D antigen unit(s)<span style="background: LightGoldenRodYellow"> (Details: Unit of Measurement EMA  code100000110782 = 'D antigen unit(s)')</span>/0.5 millilitre(s)<span style="background: LightGoldenRodYellow"> (Details: Unit of Measurement EMA  code100000110662 = 'millilitre(s)')</span></p><blockquote><p><b>referenceStrength</b></p><h3>Substances</h3><table class="grid"><tr><td style="display: none">-</td><td><b>Concept</b></td></tr><tr><td style="display: none">*</td><td><span title="Codes:{https://spor.ema.europa.eu/v2/SubstanceDefinition 100000089268}">Poliovirus (inactivated) type 2 (MEF-1 strain)</span></td></tr></table><p><b>strength</b>: 7 D antigen unit(s)<span style="background: LightGoldenRodYellow"> (Details: Unit of Measurement EMA  code100000110782 = 'D antigen unit(s)')</span>/0.5 millilitre(s)<span style="background: LightGoldenRodYellow"> (Details: Unit of Measurement EMA  code100000110662 = 'millilitre(s)')</span></p></blockquote></blockquote></blockquote></div>
        </text>
        <status value="active"/>
        <for>
          <reference value="MedicinalProductDefinition/ImovaxPolio-EE-IS-MedicinalProductDefinition"/>
        </for>
        <for>
          <reference value="ManufacturedItemDefinition/ImovaxPolio-EE-IS-ManufacturedItemDefinition"/>
        </for>
        <for>
          <reference value="AdministrableProductDefinition/ImovaxPolio-EE-IS-AdminProdDef"/>
        </for>
        <role>
          <coding>
            <system value="https://spor.ema.europa.eu/v1/lists/100000072050"/>
            <code value="100000072072"/>
            <display value="Active"/>
          </coding>
        </role>
        <substance>
          <code>
            <concept>
              <coding>
                <system value="https://spor.ema.europa.eu/v2/SubstanceDefinition"/>
                <code value="100000089268"/>
                <display value="Poliovirus (inactivated) type 2 (MEF-1 strain)"/>
              </coding>
            </concept>
          </code>
          <strength>
            <presentationRatio>
              <numerator>
                <value value="7"/>
                <unit value="D antigen unit(s)"/>
                <system value="https://spor.ema.europa.eu/v1/lists/100000110633"/>
                <code value="100000110782"/>
              </numerator>
              <denominator>
                <value value="0.5"/>
                <unit value="millilitre(s)"/>
                <system value="https://spor.ema.europa.eu/v1/lists/100000110633"/>
                <code value="100000110662"/>
              </denominator>
            </presentationRatio>
            <referenceStrength>
              <substance>
                <concept>
                  <coding>
                    <system value="https://spor.ema.europa.eu/v2/SubstanceDefinition"/>
                    <code value="100000089268"/>
                    <display value="Poliovirus (inactivated) type 2 (MEF-1 strain)"/>
                  </coding>
                </concept>
              </substance>
              <strengthRatio>
                <numerator>
                  <value value="7"/>
                  <unit value="D antigen unit(s)"/>
                  <system value="https://spor.ema.europa.eu/v1/lists/100000110633"/>
                  <code value="100000110782"/>
                </numerator>
                <denominator>
                  <value value="0.5"/>
                  <unit value="millilitre(s)"/>
                  <system value="https://spor.ema.europa.eu/v1/lists/100000110633"/>
                  <code value="100000110662"/>
                </denominator>
              </strengthRatio>
            </referenceStrength>
          </strength>
        </substance>
      </Ingredient>
    </resource>
  </entry>
  <entry>
    <fullUrl value="https://hl7-eu.github.io/unicom-ig/branches/mpd-r4b/Ingredient-ImovaxPolio-EE-IS-Ingredient-3"/>
    <resource>
      <Ingredient>
        <id value="ImovaxPolio-EE-IS-Ingredient-3"/>
        <meta>
          <profile value="http://unicom-project.eu/fhir/StructureDefinition/PPLIngredient"/>
        </meta>
        <text>
          <status value="generated"/><div xmlns="http://www.w3.org/1999/xhtml"><a name="Ingredient_ImovaxPolio-EE-IS-Ingredient-3"> </a><p class="res-header-id"><b>Generated Narrative: Ingredient ImovaxPolio-EE-IS-Ingredient-3</b></p><a name="ImovaxPolio-EE-IS-Ingredient-3"> </a><a name="hcImovaxPolio-EE-IS-Ingredient-3"> </a><a name="ImovaxPolio-EE-IS-Ingredient-3-en-US"> </a><p><b>status</b>: Active</p><p><b>for</b>: </p><ul><li><a href="Bundle-017-ImovaxPolio-EE-FullProduct.html#MedicinalProductDefinition_ImovaxPolio-EE-IS-MedicinalProductDefinition">Bundle: type = collection</a></li><li><a href="Bundle-017-ImovaxPolio-EE-FullProduct.html#ManufacturedItemDefinition_ImovaxPolio-EE-IS-ManufacturedItemDefinition">Bundle: type = collection</a></li><li><a href="Bundle-017-ImovaxPolio-EE-FullProduct.html#AdministrableProductDefinition_ImovaxPolio-EE-IS-AdminProdDef">Bundle: type = collection</a></li></ul><p><b>role</b>: <span title="Codes:{https://spor.ema.europa.eu/v1/lists/100000072050 100000072072}">Active</span></p><blockquote><p><b>substance</b></p><h3>Codes</h3><table class="grid"><tr><td style="display: none">-</td><td><b>Concept</b></td></tr><tr><td style="display: none">*</td><td><span title="Codes:{https://spor.ema.europa.eu/v2/SubstanceDefinition 100000089267}">Poliovirus (inactivated) type 3 (Saukett strain)</span></td></tr></table><blockquote><p><b>strength</b></p><p><b>presentation</b>: 26 D antigen unit(s)<span style="background: LightGoldenRodYellow"> (Details: Unit of Measurement EMA  code100000110782 = 'D antigen unit(s)')</span>/0.5 millilitre(s)<span style="background: LightGoldenRodYellow"> (Details: Unit of Measurement EMA  code100000110662 = 'millilitre(s)')</span></p><blockquote><p><b>referenceStrength</b></p><h3>Substances</h3><table class="grid"><tr><td style="display: none">-</td><td><b>Concept</b></td></tr><tr><td style="display: none">*</td><td><span title="Codes:{https://spor.ema.europa.eu/v2/SubstanceDefinition 100000089267}">Poliovirus (inactivated) type 3 (Saukett strain)</span></td></tr></table><p><b>strength</b>: 26 D antigen unit(s)<span style="background: LightGoldenRodYellow"> (Details: Unit of Measurement EMA  code100000110782 = 'D antigen unit(s)')</span>/0.5 millilitre(s)<span style="background: LightGoldenRodYellow"> (Details: Unit of Measurement EMA  code100000110662 = 'millilitre(s)')</span></p></blockquote></blockquote></blockquote></div>
        </text>
        <status value="active"/>
        <for>
          <reference value="MedicinalProductDefinition/ImovaxPolio-EE-IS-MedicinalProductDefinition"/>
        </for>
        <for>
          <reference value="ManufacturedItemDefinition/ImovaxPolio-EE-IS-ManufacturedItemDefinition"/>
        </for>
        <for>
          <reference value="AdministrableProductDefinition/ImovaxPolio-EE-IS-AdminProdDef"/>
        </for>
        <role>
          <coding>
            <system value="https://spor.ema.europa.eu/v1/lists/100000072050"/>
            <code value="100000072072"/>
            <display value="Active"/>
          </coding>
        </role>
        <substance>
          <code>
            <concept>
              <coding>
                <system value="https://spor.ema.europa.eu/v2/SubstanceDefinition"/>
                <code value="100000089267"/>
                <display value="Poliovirus (inactivated) type 3 (Saukett strain)"/>
              </coding>
            </concept>
          </code>
          <strength>
            <presentationRatio>
              <numerator>
                <value value="26"/>
                <unit value="D antigen unit(s)"/>
                <system value="https://spor.ema.europa.eu/v1/lists/100000110633"/>
                <code value="100000110782"/>
              </numerator>
              <denominator>
                <value value="0.5"/>
                <unit value="millilitre(s)"/>
                <system value="https://spor.ema.europa.eu/v1/lists/100000110633"/>
                <code value="100000110662"/>
              </denominator>
            </presentationRatio>
            <referenceStrength>
              <substance>
                <concept>
                  <coding>
                    <system value="https://spor.ema.europa.eu/v2/SubstanceDefinition"/>
                    <code value="100000089267"/>
                    <display value="Poliovirus (inactivated) type 3 (Saukett strain)"/>
                  </coding>
                </concept>
              </substance>
              <strengthRatio>
                <numerator>
                  <value value="26"/>
                  <unit value="D antigen unit(s)"/>
                  <system value="https://spor.ema.europa.eu/v1/lists/100000110633"/>
                  <code value="100000110782"/>
                </numerator>
                <denominator>
                  <value value="0.5"/>
                  <unit value="millilitre(s)"/>
                  <system value="https://spor.ema.europa.eu/v1/lists/100000110633"/>
                  <code value="100000110662"/>
                </denominator>
              </strengthRatio>
            </referenceStrength>
          </strength>
        </substance>
      </Ingredient>
    </resource>
  </entry>
</Bundle>