{
  "resourceType" : "Bundle",
  "id" : "008-Jangee-003mg-3mg-Film-coated-tablet-EE-FullProduct",
  "type" : "collection",
  "entry" : [{
    "fullUrl" : "https://hl7-eu.github.io/unicom-ig/branches/mpd-r4b/MedicinalProductDefinition-Jangee-003mg-3mg-Film-coated-tablet-EE-MPD",
    "resource" : {
      "resourceType" : "MedicinalProductDefinition",
      "id" : "Jangee-003mg-3mg-Film-coated-tablet-EE-MPD",
      "meta" : {
        "profile" : ["http://unicom-project.eu/fhir/StructureDefinition/PPLMedicinalProductDefinition"]
      },
      "text" : {
        "status" : "generated",
        "div" : "<div xmlns=\"http://www.w3.org/1999/xhtml\"><a name=\"MedicinalProductDefinition_Jangee-003mg-3mg-Film-coated-tablet-EE-MPD\"> </a><p class=\"res-header-id\"><b>Generated Narrative: MedicinalProductDefinition Jangee-003mg-3mg-Film-coated-tablet-EE-MPD</b></p><a name=\"Jangee-003mg-3mg-Film-coated-tablet-EE-MPD\"> </a><a name=\"hcJangee-003mg-3mg-Film-coated-tablet-EE-MPD\"> </a><a name=\"Jangee-003mg-3mg-Film-coated-tablet-EE-MPD-en-US\"> </a><p><b>identifier</b>: <code>http://ema.europa.eu/fhir/mpId</code>/EE-100005719-2604</p><p><b>domain</b>: <span title=\"Codes:{https://spor.ema.europa.eu/v1/lists/100000000004 100000000012}\">Human use</span></p><p><b>status</b>: <span title=\"Codes:{https://spor.ema.europa.eu/v1/lists/200000005003 200000005004}\">Current</span></p><p><b>combinedPharmaceuticalDoseForm</b>: <span title=\"Codes:{https://spor.ema.europa.eu/v1/lists/200000000004 100000073665}\">Film-coated tablet</span></p><p><b>indication</b>: </p><div><p>Raseduse vältimine. Jangee 0,03 mg/3 mg väljakirjutamisel tuleb võtta arvesse naisel käesoleval hetkel esinevaid individuaalseid riskifaktoreid, eriti venoosse trombemboolia (VTE) riskifaktoreid ning VTE riski selle ravimiga, võrreldes teiste kombineeritud hormonaalsete kontratseptiividega..</p>\n</div><p><b>legalStatusOfSupply</b>: <span title=\"Codes:{https://spor.ema.europa.eu/v1/lists/100000072051 100000072084}\">Medicinal product subject to medical prescription</span></p><p><b>classification</b>: <span title=\"Codes:{https://spor.ema.europa.eu/v1/lists/100000093533 100000095785}\">drospirenone and ethinylestradiol</span></p><blockquote><p><b>name</b></p><p><b>productName</b>: Jangee 0.03 mg/3 mg, õhukese polümeerikattega tabletid</p><blockquote><p><b>part</b></p><p><b>part</b>: Jangee</p><p><b>type</b>: <span title=\"Codes:{https://spor.ema.europa.eu/v1/lists/220000000000 220000000002}\">Invented name part</span></p></blockquote><blockquote><p><b>part</b></p><p><b>part</b>: 0.03 mg/3 mg</p><p><b>type</b>: <span title=\"Codes:{https://spor.ema.europa.eu/v1/lists/220000000000 220000000004}\">Strength part</span></p></blockquote><blockquote><p><b>part</b></p><p><b>part</b>: Õhukese polümeerikattega tabletid</p><p><b>type</b>: <span title=\"Codes:{https://spor.ema.europa.eu/v1/lists/220000000000 220000000005}\">Pharmaceutical dose form part</span></p></blockquote><h3>Usages</h3><table class=\"grid\"><tr><td style=\"display: none\">-</td><td><b>Country</b></td><td><b>Language</b></td></tr><tr><td style=\"display: none\">*</td><td><span title=\"Codes:{https://spor.ema.europa.eu/v1/lists/100000000002 100000000388}\">Republic of Estonia</span></td><td><span title=\"Codes:{urn:ietf:bcp:47 et}\">Estonian</span></td></tr></table></blockquote></div>"
      },
      "identifier" : [{
        "system" : "http://ema.europa.eu/fhir/mpId",
        "value" : "EE-100005719-2604"
      }],
      "domain" : {
        "coding" : [{
          "system" : "https://spor.ema.europa.eu/v1/lists/100000000004",
          "code" : "100000000012",
          "display" : "Human use"
        }]
      },
      "status" : {
        "coding" : [{
          "system" : "https://spor.ema.europa.eu/v1/lists/200000005003",
          "code" : "200000005004",
          "display" : "Current"
        }]
      },
      "combinedPharmaceuticalDoseForm" : {
        "coding" : [{
          "system" : "https://spor.ema.europa.eu/v1/lists/200000000004",
          "code" : "100000073665",
          "display" : "Film-coated tablet"
        }]
      },
      "indication" : "Raseduse vältimine. Jangee 0,03 mg/3 mg väljakirjutamisel tuleb võtta arvesse naisel käesoleval hetkel esinevaid individuaalseid riskifaktoreid, eriti venoosse trombemboolia (VTE) riskifaktoreid ning VTE riski selle ravimiga, võrreldes teiste kombineeritud hormonaalsete kontratseptiividega..",
      "legalStatusOfSupply" : {
        "coding" : [{
          "system" : "https://spor.ema.europa.eu/v1/lists/100000072051",
          "code" : "100000072084",
          "display" : "Medicinal product subject to medical prescription"
        }]
      },
      "classification" : [{
        "coding" : [{
          "system" : "https://spor.ema.europa.eu/v1/lists/100000093533",
          "code" : "100000095785",
          "display" : "drospirenone and ethinylestradiol"
        }]
      }],
      "name" : [{
        "productName" : "Jangee 0.03 mg/3 mg, õhukese polümeerikattega tabletid",
        "part" : [{
          "part" : "Jangee",
          "type" : {
            "coding" : [{
              "system" : "https://spor.ema.europa.eu/v1/lists/220000000000",
              "code" : "220000000002",
              "display" : "Invented name part"
            }]
          }
        },
        {
          "part" : "0.03 mg/3 mg",
          "type" : {
            "coding" : [{
              "system" : "https://spor.ema.europa.eu/v1/lists/220000000000",
              "code" : "220000000004",
              "display" : "Strength part"
            }]
          }
        },
        {
          "part" : "Õhukese polümeerikattega tabletid",
          "type" : {
            "coding" : [{
              "system" : "https://spor.ema.europa.eu/v1/lists/220000000000",
              "code" : "220000000005",
              "display" : "Pharmaceutical dose form part"
            }]
          }
        }],
        "usage" : [{
          "country" : {
            "coding" : [{
              "system" : "https://spor.ema.europa.eu/v1/lists/100000000002",
              "code" : "100000000388",
              "display" : "Republic of Estonia"
            }]
          },
          "language" : {
            "coding" : [{
              "system" : "urn:ietf:bcp:47",
              "code" : "et",
              "display" : "Estonian"
            }]
          }
        }]
      }]
    }
  },
  {
    "fullUrl" : "https://hl7-eu.github.io/unicom-ig/branches/mpd-r4b/Organization-LOC-100005719-ExeltisBalticsUAB",
    "resource" : {
      "resourceType" : "Organization",
      "id" : "LOC-100005719-ExeltisBalticsUAB",
      "meta" : {
        "profile" : ["http://unicom-project.eu/fhir/StructureDefinition/PPLOrganization"]
      },
      "text" : {
        "status" : "generated",
        "div" : "<div xmlns=\"http://www.w3.org/1999/xhtml\"><a name=\"Organization_LOC-100005719-ExeltisBalticsUAB\"> </a><p class=\"res-header-id\"><b>Generated Narrative: Organization LOC-100005719-ExeltisBalticsUAB</b></p><a name=\"LOC-100005719-ExeltisBalticsUAB\"> </a><a name=\"hcLOC-100005719-ExeltisBalticsUAB\"> </a><a name=\"LOC-100005719-ExeltisBalticsUAB-en-US\"> </a><p><b>identifier</b>: <code>https://spor.ema.europa.eu/v1/locations</code>/LOC-100005719</p><p><b>name</b>: Exeltis Baltics UAB</p></div>"
      },
      "identifier" : [{
        "system" : "https://spor.ema.europa.eu/v1/locations",
        "value" : "LOC-100005719"
      }],
      "name" : "Exeltis Baltics UAB"
    }
  },
  {
    "fullUrl" : "https://hl7-eu.github.io/unicom-ig/branches/mpd-r4b/RegulatedAuthorization-Jangee-003mg-3mg-Film-coated-tablet-EE-RA",
    "resource" : {
      "resourceType" : "RegulatedAuthorization",
      "id" : "Jangee-003mg-3mg-Film-coated-tablet-EE-RA",
      "meta" : {
        "profile" : ["http://unicom-project.eu/fhir/StructureDefinition/PPLRegulatedAuthorization"]
      },
      "text" : {
        "status" : "generated",
        "div" : "<div xmlns=\"http://www.w3.org/1999/xhtml\"><a name=\"RegulatedAuthorization_Jangee-003mg-3mg-Film-coated-tablet-EE-RA\"> </a><p class=\"res-header-id\"><b>Generated Narrative: RegulatedAuthorization Jangee-003mg-3mg-Film-coated-tablet-EE-RA</b></p><a name=\"Jangee-003mg-3mg-Film-coated-tablet-EE-RA\"> </a><a name=\"hcJangee-003mg-3mg-Film-coated-tablet-EE-RA\"> </a><a name=\"Jangee-003mg-3mg-Film-coated-tablet-EE-RA-en-US\"> </a><p><b>identifier</b>: 650609</p><p><b>subject</b>: <a href=\"Bundle-008-Jangee-003mg-3mg-Film-coated-tablet-EE-FullProduct.html#MedicinalProductDefinition_Jangee-003mg-3mg-Film-coated-tablet-EE-MPD\">Bundle: type = collection</a></p><p><b>type</b>: <span title=\"Codes:{https://spor.ema.europa.eu/v1/lists/220000000060 220000000061}\">Marketing Authorisation</span></p><p><b>region</b>: <span title=\"Codes:{https://spor.ema.europa.eu/v1/lists/100000000002 100000000388}\">Republic of Estonia</span></p><p><b>status</b>: <span title=\"Codes:{https://spor.ema.europa.eu/v1/lists/100000072049 200000017708}\">Valid - Renewed/Varied</span></p><p><b>statusDate</b>: 2016-09-14</p><p><b>holder</b>: <a href=\"Bundle-007-Jangee-002mg-3mg-Film-coated-tablet-EE-FullProduct.html#Organization_LOC-100005719-ExeltisBalticsUAB\">Bundle: type = collection</a></p></div>"
      },
      "identifier" : [{
        "value" : "650609"
      }],
      "subject" : [{
        "reference" : "MedicinalProductDefinition/Jangee-003mg-3mg-Film-coated-tablet-EE-MPD"
      }],
      "type" : {
        "coding" : [{
          "system" : "https://spor.ema.europa.eu/v1/lists/220000000060",
          "code" : "220000000061",
          "display" : "Marketing Authorisation"
        }]
      },
      "region" : [{
        "coding" : [{
          "system" : "https://spor.ema.europa.eu/v1/lists/100000000002",
          "code" : "100000000388",
          "display" : "Republic of Estonia"
        }]
      }],
      "status" : {
        "coding" : [{
          "system" : "https://spor.ema.europa.eu/v1/lists/100000072049",
          "code" : "200000017708",
          "display" : "Valid - Renewed/Varied"
        }]
      },
      "statusDate" : "2016-09-14",
      "holder" : {
        "reference" : "Organization/LOC-100005719-ExeltisBalticsUAB"
      }
    }
  },
  {
    "fullUrl" : "https://hl7-eu.github.io/unicom-ig/branches/mpd-r4b/AdministrableProductDefinition-Jangee-003mg-3mg-Film-coated-tablet-EE-APD",
    "resource" : {
      "resourceType" : "AdministrableProductDefinition",
      "id" : "Jangee-003mg-3mg-Film-coated-tablet-EE-APD",
      "meta" : {
        "profile" : ["http://unicom-project.eu/fhir/StructureDefinition/PPLAdministrableProductDefinition"]
      },
      "text" : {
        "status" : "generated",
        "div" : "<div xmlns=\"http://www.w3.org/1999/xhtml\"><a name=\"AdministrableProductDefinition_Jangee-003mg-3mg-Film-coated-tablet-EE-APD\"> </a><p class=\"res-header-id\"><b>Generated Narrative: AdministrableProductDefinition Jangee-003mg-3mg-Film-coated-tablet-EE-APD</b></p><a name=\"Jangee-003mg-3mg-Film-coated-tablet-EE-APD\"> </a><a name=\"hcJangee-003mg-3mg-Film-coated-tablet-EE-APD\"> </a><a name=\"Jangee-003mg-3mg-Film-coated-tablet-EE-APD-en-US\"> </a><p><b>status</b>: Active</p><p><b>formOf</b>: <a href=\"Bundle-008-Jangee-003mg-3mg-Film-coated-tablet-EE-FullProduct.html#MedicinalProductDefinition_Jangee-003mg-3mg-Film-coated-tablet-EE-MPD\">Bundle: type = collection</a></p><p><b>administrableDoseForm</b>: <span title=\"Codes:{https://spor.ema.europa.eu/v1/lists/200000000004 100000073665}\">Film-coated tablet</span></p><p><b>producedFrom</b>: <a href=\"Bundle-008-Jangee-003mg-3mg-Film-coated-tablet-EE-FullProduct.html#ManufacturedItemDefinition_Jangee-003mg-3mg-Film-coated-tablet-EE-MID\">Bundle: type = collection</a></p><h3>RouteOfAdministrations</h3><table class=\"grid\"><tr><td style=\"display: none\">-</td><td><b>Code</b></td></tr><tr><td style=\"display: none\">*</td><td><span title=\"Codes:{https://spor.ema.europa.eu/v1/lists/100000073345 100000073619}\">Oral use</span></td></tr></table></div>"
      },
      "status" : "active",
      "formOf" : [{
        "reference" : "MedicinalProductDefinition/Jangee-003mg-3mg-Film-coated-tablet-EE-MPD"
      }],
      "administrableDoseForm" : {
        "coding" : [{
          "system" : "https://spor.ema.europa.eu/v1/lists/200000000004",
          "code" : "100000073665",
          "display" : "Film-coated tablet"
        }]
      },
      "producedFrom" : [{
        "reference" : "ManufacturedItemDefinition/Jangee-003mg-3mg-Film-coated-tablet-EE-MID"
      }],
      "routeOfAdministration" : [{
        "code" : {
          "coding" : [{
            "system" : "https://spor.ema.europa.eu/v1/lists/100000073345",
            "code" : "100000073619",
            "display" : "Oral use"
          }]
        }
      }]
    }
  },
  {
    "fullUrl" : "https://hl7-eu.github.io/unicom-ig/branches/mpd-r4b/PackagedProductDefinition-Jangee-003mg-3mg-Film-coated-tablet-EE-PPD",
    "resource" : {
      "resourceType" : "PackagedProductDefinition",
      "id" : "Jangee-003mg-3mg-Film-coated-tablet-EE-PPD",
      "meta" : {
        "profile" : ["http://unicom-project.eu/fhir/StructureDefinition/PPLPackagedProductDefinition"]
      },
      "text" : {
        "status" : "generated",
        "div" : "<div xmlns=\"http://www.w3.org/1999/xhtml\"><a name=\"PackagedProductDefinition_Jangee-003mg-3mg-Film-coated-tablet-EE-PPD\"> </a><p class=\"res-header-id\"><b>Generated Narrative: PackagedProductDefinition Jangee-003mg-3mg-Film-coated-tablet-EE-PPD</b></p><a name=\"Jangee-003mg-3mg-Film-coated-tablet-EE-PPD\"> </a><a name=\"hcJangee-003mg-3mg-Film-coated-tablet-EE-PPD\"> </a><a name=\"Jangee-003mg-3mg-Film-coated-tablet-EE-PPD-en-US\"> </a><p><b>identifier</b>: <code>http://ema.europa.eu/example/pcid</code>/EE-100005719-2604-1331053</p><p><b>packageFor</b>: <a href=\"Bundle-008-Jangee-003mg-3mg-Film-coated-tablet-EE-FullProduct.html#MedicinalProductDefinition_Jangee-003mg-3mg-Film-coated-tablet-EE-MPD\">Bundle: type = collection</a></p><p><b>containedItemQuantity</b>: 21 tablet<span style=\"background: LightGoldenRodYellow\"> (Details: Unit of Presentation EMA  code200000002152 = 'Tablet')</span></p><p><b>description</b>: </p><div><p>Alumiiniumfooliumiga kaetud PVC/PVDC blistrid. Pakendi suurus: 1 x 21 õhukese polümeerikattega tabletti.</p>\n</div><h3>MarketingStatuses</h3><table class=\"grid\"><tr><td style=\"display: none\">-</td><td><b>Country</b></td><td><b>Status</b></td></tr><tr><td style=\"display: none\">*</td><td><span title=\"Codes:{https://spor.ema.europa.eu/v1/lists/100000000002 100000000388}\">Republic of Estonia</span></td><td><span title=\"Codes:{https://spor.ema.europa.eu/v1/lists/100000072052 100000072083}\">Marketed</span></td></tr></table><blockquote><p><b>packaging</b></p><p><b>type</b>: <span title=\"Codes:{https://spor.ema.europa.eu/v1/lists/100000073346 100000073498}\">Box</span></p><p><b>quantity</b>: 1</p><blockquote><p><b>packaging</b></p></blockquote></blockquote></div>"
      },
      "identifier" : [{
        "system" : "http://ema.europa.eu/example/pcid",
        "value" : "EE-100005719-2604-1331053"
      }],
      "packageFor" : [{
        "reference" : "MedicinalProductDefinition/Jangee-003mg-3mg-Film-coated-tablet-EE-MPD"
      }],
      "containedItemQuantity" : [{
        "value" : 21,
        "unit" : "tablet",
        "system" : "https://spor.ema.europa.eu/v1/lists/200000000014",
        "code" : "200000002152"
      }],
      "description" : "Alumiiniumfooliumiga kaetud PVC/PVDC blistrid. Pakendi suurus: 1 x 21 õhukese polümeerikattega tabletti.",
      "marketingStatus" : [{
        "country" : {
          "coding" : [{
            "system" : "https://spor.ema.europa.eu/v1/lists/100000000002",
            "code" : "100000000388",
            "display" : "Republic of Estonia"
          }]
        },
        "status" : {
          "coding" : [{
            "system" : "https://spor.ema.europa.eu/v1/lists/100000072052",
            "code" : "100000072083",
            "display" : "Marketed"
          }]
        }
      }],
      "packaging" : {
        "type" : {
          "coding" : [{
            "system" : "https://spor.ema.europa.eu/v1/lists/100000073346",
            "code" : "100000073498",
            "display" : "Box"
          }]
        },
        "quantity" : 1,
        "packaging" : [{
          "type" : {
            "coding" : [{
              "system" : "https://spor.ema.europa.eu/v1/lists/100000073346",
              "code" : "100000073498",
              "display" : "Box"
            }]
          },
          "quantity" : 1,
          "material" : [{
            "coding" : [{
              "system" : "https://spor.ema.europa.eu/v1/lists/200000003199",
              "code" : "200000003529",
              "display" : "Cardboard"
            }]
          }],
          "packaging" : [{
            "type" : {
              "coding" : [{
                "system" : "https://spor.ema.europa.eu/v1/lists/100000073346",
                "code" : "100000073496",
                "display" : "Blister"
              }]
            },
            "quantity" : 1,
            "material" : [{
              "coding" : [{
                "system" : "https://spor.ema.europa.eu/v1/lists/200000003199",
                "code" : "200000003200",
                "display" : "Aluminium"
              }]
            },
            {
              "coding" : [{
                "system" : "https://spor.ema.europa.eu/v1/lists/200000003199",
                "code" : "200000003222",
                "display" : "PolyVinyl Chloride"
              }]
            },
            {
              "coding" : [{
                "system" : "https://spor.ema.europa.eu/v1/lists/200000003199",
                "code" : "200000003225",
                "display" : "PolyVinylidene Chloride"
              }]
            }],
            "containedItem" : [{
              "item" : {
                "reference" : {
                  "reference" : "ManufacturedItemDefinition/Jangee-003mg-3mg-Film-coated-tablet-EE-MID"
                }
              },
              "amount" : {
                "value" : 21,
                "unit" : "tablet",
                "system" : "https://spor.ema.europa.eu/v1/lists/200000000014",
                "code" : "200000002152"
              }
            }]
          }]
        }]
      }
    }
  },
  {
    "fullUrl" : "https://hl7-eu.github.io/unicom-ig/branches/mpd-r4b/ManufacturedItemDefinition-Jangee-003mg-3mg-Film-coated-tablet-EE-MID",
    "resource" : {
      "resourceType" : "ManufacturedItemDefinition",
      "id" : "Jangee-003mg-3mg-Film-coated-tablet-EE-MID",
      "meta" : {
        "profile" : ["http://unicom-project.eu/fhir/StructureDefinition/PPLManufacturedItemDefinition"]
      },
      "text" : {
        "status" : "generated",
        "div" : "<div xmlns=\"http://www.w3.org/1999/xhtml\"><a name=\"ManufacturedItemDefinition_Jangee-003mg-3mg-Film-coated-tablet-EE-MID\"> </a><p class=\"res-header-id\"><b>Generated Narrative: ManufacturedItemDefinition Jangee-003mg-3mg-Film-coated-tablet-EE-MID</b></p><a name=\"Jangee-003mg-3mg-Film-coated-tablet-EE-MID\"> </a><a name=\"hcJangee-003mg-3mg-Film-coated-tablet-EE-MID\"> </a><a name=\"Jangee-003mg-3mg-Film-coated-tablet-EE-MID-en-US\"> </a><p><b>status</b>: Active</p><p><b>manufacturedDoseForm</b>: <span title=\"Codes:{https://spor.ema.europa.eu/v1/lists/200000000004 100000073665}\">Film-coated tablet</span></p><p><b>unitOfPresentation</b>: <span title=\"Codes:{https://spor.ema.europa.eu/v1/lists/200000000014 200000002152}\">tablet</span></p></div>"
      },
      "status" : "active",
      "manufacturedDoseForm" : {
        "coding" : [{
          "system" : "https://spor.ema.europa.eu/v1/lists/200000000004",
          "code" : "100000073665",
          "display" : "Film-coated tablet"
        }]
      },
      "unitOfPresentation" : {
        "coding" : [{
          "system" : "https://spor.ema.europa.eu/v1/lists/200000000014",
          "code" : "200000002152",
          "display" : "tablet"
        }]
      }
    }
  },
  {
    "fullUrl" : "https://hl7-eu.github.io/unicom-ig/branches/mpd-r4b-Jangee-003mg-3mg-Film-coated-tablet-EE-I-01",
    "resource" : {
      "resourceType" : "Ingredient",
      "id" : "Jangee-003mg-3mg-Film-coated-tablet-EE-I-01",
      "meta" : {
        "profile" : ["http://unicom-project.eu/fhir/StructureDefinition/PPLIngredient"]
      },
      "text" : {
        "status" : "generated",
        "div" : "<div xmlns=\"http://www.w3.org/1999/xhtml\"><a name=\"Ingredient_Jangee-003mg-3mg-Film-coated-tablet-EE-I-01\"> </a><p class=\"res-header-id\"><b>Generated Narrative: Ingredient Jangee-003mg-3mg-Film-coated-tablet-EE-I-01</b></p><a name=\"Jangee-003mg-3mg-Film-coated-tablet-EE-I-01\"> </a><a name=\"hcJangee-003mg-3mg-Film-coated-tablet-EE-I-01\"> </a><a name=\"Jangee-003mg-3mg-Film-coated-tablet-EE-I-01-en-US\"> </a><p><b>status</b>: Active</p><p><b>for</b>: </p><ul><li><a href=\"Bundle-008-Jangee-003mg-3mg-Film-coated-tablet-EE-FullProduct.html#MedicinalProductDefinition_Jangee-003mg-3mg-Film-coated-tablet-EE-MPD\">Bundle: type = collection</a></li><li><a href=\"Bundle-008-Jangee-003mg-3mg-Film-coated-tablet-EE-FullProduct.html#ManufacturedItemDefinition_Jangee-003mg-3mg-Film-coated-tablet-EE-MID\">Bundle: type = collection</a></li><li><a href=\"Bundle-008-Jangee-003mg-3mg-Film-coated-tablet-EE-FullProduct.html#AdministrableProductDefinition_Jangee-003mg-3mg-Film-coated-tablet-EE-APD\">Bundle: type = collection</a></li></ul><p><b>role</b>: <span title=\"Codes:{https://spor.ema.europa.eu/v1/lists/100000072050 100000072072}\">Active</span></p><blockquote><p><b>substance</b></p><h3>Codes</h3><table class=\"grid\"><tr><td style=\"display: none\">-</td><td><b>Concept</b></td></tr><tr><td style=\"display: none\">*</td><td><span title=\"Codes:{https://spor.ema.europa.eu/v2/SubstanceDefinition 100000091531}\">Ethinylestradiol betadex clathrate</span></td></tr></table><blockquote><p><b>strength</b></p><blockquote><p><b>referenceStrength</b></p><h3>Substances</h3><table class=\"grid\"><tr><td style=\"display: none\">-</td><td><b>Concept</b></td></tr><tr><td style=\"display: none\">*</td><td><span title=\"Codes:{https://spor.ema.europa.eu/v2/SubstanceDefinition 100000091721}\">Ethinylestradiol</span></td></tr></table><p><b>strength</b>: 0.03 milligram(s)<span style=\"background: LightGoldenRodYellow\"> (Details: Unit of Measurement EMA  code100000110655 = 'milligram(s)')</span>/1 tablet<span style=\"background: LightGoldenRodYellow\"> (Details: Unit of Presentation EMA  code200000002152 = 'Tablet')</span></p></blockquote></blockquote></blockquote></div>"
      },
      "status" : "active",
      "for" : [{
        "reference" : "MedicinalProductDefinition/Jangee-003mg-3mg-Film-coated-tablet-EE-MPD"
      },
      {
        "reference" : "ManufacturedItemDefinition/Jangee-003mg-3mg-Film-coated-tablet-EE-MID"
      },
      {
        "reference" : "AdministrableProductDefinition/Jangee-003mg-3mg-Film-coated-tablet-EE-APD"
      }],
      "role" : {
        "coding" : [{
          "system" : "https://spor.ema.europa.eu/v1/lists/100000072050",
          "code" : "100000072072",
          "display" : "Active"
        }]
      },
      "substance" : {
        "code" : {
          "concept" : {
            "coding" : [{
              "system" : "https://spor.ema.europa.eu/v2/SubstanceDefinition",
              "code" : "100000091531",
              "display" : "Ethinylestradiol betadex clathrate"
            }]
          }
        },
        "strength" : [{
          "referenceStrength" : [{
            "substance" : {
              "concept" : {
                "coding" : [{
                  "system" : "https://spor.ema.europa.eu/v2/SubstanceDefinition",
                  "code" : "100000091721",
                  "display" : "Ethinylestradiol"
                }]
              }
            },
            "strengthRatio" : {
              "numerator" : {
                "value" : 0.03,
                "unit" : "milligram(s)",
                "system" : "https://spor.ema.europa.eu/v1/lists/100000110633",
                "code" : "100000110655"
              },
              "denominator" : {
                "value" : 1,
                "unit" : "tablet",
                "system" : "https://spor.ema.europa.eu/v1/lists/200000000014",
                "code" : "200000002152"
              }
            }
          }]
        }]
      }
    }
  },
  {
    "fullUrl" : "https://hl7-eu.github.io/unicom-ig/branches/mpd-r4b-Jangee-003mg-3mg-Film-coated-tablet-EE-I-02",
    "resource" : {
      "resourceType" : "Ingredient",
      "id" : "Jangee-003mg-3mg-Film-coated-tablet-EE-I-02",
      "meta" : {
        "profile" : ["http://unicom-project.eu/fhir/StructureDefinition/PPLIngredient"]
      },
      "text" : {
        "status" : "generated",
        "div" : "<div xmlns=\"http://www.w3.org/1999/xhtml\"><a name=\"Ingredient_Jangee-003mg-3mg-Film-coated-tablet-EE-I-02\"> </a><p class=\"res-header-id\"><b>Generated Narrative: Ingredient Jangee-003mg-3mg-Film-coated-tablet-EE-I-02</b></p><a name=\"Jangee-003mg-3mg-Film-coated-tablet-EE-I-02\"> </a><a name=\"hcJangee-003mg-3mg-Film-coated-tablet-EE-I-02\"> </a><a name=\"Jangee-003mg-3mg-Film-coated-tablet-EE-I-02-en-US\"> </a><p><b>status</b>: Active</p><p><b>for</b>: </p><ul><li><a href=\"Bundle-008-Jangee-003mg-3mg-Film-coated-tablet-EE-FullProduct.html#MedicinalProductDefinition_Jangee-003mg-3mg-Film-coated-tablet-EE-MPD\">Bundle: type = collection</a></li><li><a href=\"Bundle-008-Jangee-003mg-3mg-Film-coated-tablet-EE-FullProduct.html#ManufacturedItemDefinition_Jangee-003mg-3mg-Film-coated-tablet-EE-MID\">Bundle: type = collection</a></li><li><a href=\"Bundle-008-Jangee-003mg-3mg-Film-coated-tablet-EE-FullProduct.html#AdministrableProductDefinition_Jangee-003mg-3mg-Film-coated-tablet-EE-APD\">Bundle: type = collection</a></li></ul><p><b>role</b>: <span title=\"Codes:{https://spor.ema.europa.eu/v1/lists/100000072050 100000072072}\">Active</span></p><blockquote><p><b>substance</b></p><h3>Codes</h3><table class=\"grid\"><tr><td style=\"display: none\">-</td><td><b>Concept</b></td></tr><tr><td style=\"display: none\">*</td><td><span title=\"Codes:{https://spor.ema.europa.eu/v2/SubstanceDefinition 100000092375}\">drospirenone</span></td></tr></table><blockquote><p><b>strength</b></p><p><b>presentation</b>: 3 milligram(s)<span style=\"background: LightGoldenRodYellow\"> (Details: Unit of Measurement EMA  code100000110655 = 'milligram(s)')</span>/1 tablet<span style=\"background: LightGoldenRodYellow\"> (Details: Unit of Presentation EMA  code200000002152 = 'Tablet')</span></p><blockquote><p><b>referenceStrength</b></p><h3>Substances</h3><table class=\"grid\"><tr><td style=\"display: none\">-</td><td><b>Concept</b></td></tr><tr><td style=\"display: none\">*</td><td><span title=\"Codes:{https://spor.ema.europa.eu/v2/SubstanceDefinition 100000092375}\">drospirenone</span></td></tr></table><p><b>strength</b>: 3 milligram(s)<span style=\"background: LightGoldenRodYellow\"> (Details: Unit of Measurement EMA  code100000110655 = 'milligram(s)')</span>/1 tablet<span style=\"background: LightGoldenRodYellow\"> (Details: Unit of Presentation EMA  code200000002152 = 'Tablet')</span></p></blockquote></blockquote></blockquote></div>"
      },
      "status" : "active",
      "for" : [{
        "reference" : "MedicinalProductDefinition/Jangee-003mg-3mg-Film-coated-tablet-EE-MPD"
      },
      {
        "reference" : "ManufacturedItemDefinition/Jangee-003mg-3mg-Film-coated-tablet-EE-MID"
      },
      {
        "reference" : "AdministrableProductDefinition/Jangee-003mg-3mg-Film-coated-tablet-EE-APD"
      }],
      "role" : {
        "coding" : [{
          "system" : "https://spor.ema.europa.eu/v1/lists/100000072050",
          "code" : "100000072072",
          "display" : "Active"
        }]
      },
      "substance" : {
        "code" : {
          "concept" : {
            "coding" : [{
              "system" : "https://spor.ema.europa.eu/v2/SubstanceDefinition",
              "code" : "100000092375",
              "display" : "drospirenone"
            }]
          }
        },
        "strength" : [{
          "presentationRatio" : {
            "numerator" : {
              "value" : 3,
              "unit" : "milligram(s)",
              "system" : "https://spor.ema.europa.eu/v1/lists/100000110633",
              "code" : "100000110655"
            },
            "denominator" : {
              "value" : 1,
              "unit" : "tablet",
              "system" : "https://spor.ema.europa.eu/v1/lists/200000000014",
              "code" : "200000002152"
            }
          },
          "referenceStrength" : [{
            "substance" : {
              "concept" : {
                "coding" : [{
                  "system" : "https://spor.ema.europa.eu/v2/SubstanceDefinition",
                  "code" : "100000092375",
                  "display" : "drospirenone"
                }]
              }
            },
            "strengthRatio" : {
              "numerator" : {
                "value" : 3,
                "unit" : "milligram(s)",
                "system" : "https://spor.ema.europa.eu/v1/lists/100000110633",
                "code" : "100000110655"
              },
              "denominator" : {
                "value" : 1,
                "unit" : "tablet",
                "system" : "https://spor.ema.europa.eu/v1/lists/200000000014",
                "code" : "200000002152"
              }
            }
          }]
        }]
      }
    }
  }]
}