{
  "resourceType" : "Bundle",
  "id" : "Amlodistad-5mg-Tablet-SE-IS-MedicinalProductDefinition-BBDL",
  "type" : "collection",
  "entry" : [{
    "fullUrl" : "https://hl7-eu.github.io/unicom-ig/branches/mpd-r4b/MedicinalProductDefinition/Amlodistad-5mg-Tablet-SE-IS-MedicinalProductDefinition",
    "resource" : {
      "resourceType" : "MedicinalProductDefinition",
      "id" : "Amlodistad-5mg-Tablet-SE-IS-MedicinalProductDefinition",
      "meta" : {
        "profile" : ["http://unicom-project.eu/fhir/StructureDefinition/PPLMedicinalProductDefinition"]
      },
      "text" : {
        "status" : "generated",
        "div" : "<div xmlns=\"http://www.w3.org/1999/xhtml\"><a name=\"MedicinalProductDefinition_Amlodistad-5mg-Tablet-SE-IS-MedicinalProductDefinition\"> </a><p class=\"res-header-id\"><b>Generated Narrative: MedicinalProductDefinition Amlodistad-5mg-Tablet-SE-IS-MedicinalProductDefinition</b></p><a name=\"Amlodistad-5mg-Tablet-SE-IS-MedicinalProductDefinition\"> </a><a name=\"hcAmlodistad-5mg-Tablet-SE-IS-MedicinalProductDefinition\"> </a><a name=\"Amlodistad-5mg-Tablet-SE-IS-MedicinalProductDefinition-en-US\"> </a><p><b>identifier</b>: <code>http://ema.europa.eu/fhir/mpId</code>/SE-100000843-00050371</p><p><b>domain</b>: <span title=\"Codes:{https://spor.ema.europa.eu/v1/lists/100000000004 100000000012}\">Human use</span></p><p><b>status</b>: <span title=\"Codes:{https://spor.ema.europa.eu/v1/lists/200000005003 200000005004}\">Current</span></p><p><b>combinedPharmaceuticalDoseForm</b>: <span title=\"Codes:{https://spor.ema.europa.eu/v1/lists/200000000004 100000073664}\">Tablet</span></p><p><b>indication</b>: </p><div><p>• Hypertoni • Kronisk stabil anginga pectoris • Vasospastisk (Prinzmetals) angina</p>\n</div><p><b>legalStatusOfSupply</b>: <span title=\"Codes:{https://spor.ema.europa.eu/v1/lists/100000072051 100000072084}\">Medicinal product subject to medical prescription</span></p><p><b>classification</b>: <span title=\"Codes:{https://spor.ema.europa.eu/v1/lists/100000093533 100000095065}\">amlodipine</span>, <span title=\"Codes:{http://www.whocc.no/atc C08CA01}\">amlodipine</span></p><blockquote><p><b>name</b></p><p><b>productName</b>: Amlodistad 5 mg Tablett</p><blockquote><p><b>part</b></p><p><b>part</b>: Amlodistad</p><p><b>type</b>: <span title=\"Codes:{https://spor.ema.europa.eu/v1/lists/220000000000 220000000002}\">Invented name part</span></p></blockquote><blockquote><p><b>part</b></p><p><b>part</b>: 5 mg</p><p><b>type</b>: <span title=\"Codes:{https://spor.ema.europa.eu/v1/lists/220000000000 220000000004}\">Strength part</span></p></blockquote><blockquote><p><b>part</b></p><p><b>part</b>: Tablett</p><p><b>type</b>: <span title=\"Codes:{https://spor.ema.europa.eu/v1/lists/220000000000 220000000005}\">Pharmaceutical dose form part</span></p></blockquote><h3>Usages</h3><table class=\"grid\"><tr><td style=\"display: none\">-</td><td><b>Country</b></td><td><b>Language</b></td></tr><tr><td style=\"display: none\">*</td><td><span title=\"Codes:{https://spor.ema.europa.eu/v1/lists/100000000002 100000000535}\">Kingdom of Sweden</span></td><td><span title=\"Codes:{urn:ietf:bcp:47 sv}\">Swedish</span></td></tr></table></blockquote></div>"
      },
      "identifier" : [{
        "system" : "http://ema.europa.eu/fhir/mpId",
        "value" : "SE-100000843-00050371"
      }],
      "domain" : {
        "coding" : [{
          "system" : "https://spor.ema.europa.eu/v1/lists/100000000004",
          "code" : "100000000012",
          "display" : "Human use"
        }]
      },
      "status" : {
        "coding" : [{
          "system" : "https://spor.ema.europa.eu/v1/lists/200000005003",
          "code" : "200000005004",
          "display" : "Current"
        }]
      },
      "combinedPharmaceuticalDoseForm" : {
        "coding" : [{
          "system" : "https://spor.ema.europa.eu/v1/lists/200000000004",
          "code" : "100000073664",
          "display" : "Tablet"
        }]
      },
      "indication" : "• Hypertoni • Kronisk stabil anginga pectoris • Vasospastisk (Prinzmetals) angina",
      "legalStatusOfSupply" : {
        "coding" : [{
          "system" : "https://spor.ema.europa.eu/v1/lists/100000072051",
          "code" : "100000072084",
          "display" : "Medicinal product subject to medical prescription"
        }]
      },
      "classification" : [{
        "coding" : [{
          "system" : "https://spor.ema.europa.eu/v1/lists/100000093533",
          "code" : "100000095065",
          "display" : "amlodipine"
        }]
      },
      {
        "coding" : [{
          "system" : "http://www.whocc.no/atc",
          "code" : "C08CA01",
          "display" : "amlodipine"
        }]
      }],
      "name" : [{
        "productName" : "Amlodistad 5 mg Tablett",
        "part" : [{
          "part" : "Amlodistad",
          "type" : {
            "coding" : [{
              "system" : "https://spor.ema.europa.eu/v1/lists/220000000000",
              "code" : "220000000002",
              "display" : "Invented name part"
            }]
          }
        },
        {
          "part" : "5 mg",
          "type" : {
            "coding" : [{
              "system" : "https://spor.ema.europa.eu/v1/lists/220000000000",
              "code" : "220000000004",
              "display" : "Strength part"
            }]
          }
        },
        {
          "part" : "Tablett",
          "type" : {
            "coding" : [{
              "system" : "https://spor.ema.europa.eu/v1/lists/220000000000",
              "code" : "220000000005",
              "display" : "Pharmaceutical dose form part"
            }]
          }
        }],
        "usage" : [{
          "country" : {
            "coding" : [{
              "system" : "https://spor.ema.europa.eu/v1/lists/100000000002",
              "code" : "100000000535",
              "display" : "Kingdom of Sweden"
            }]
          },
          "language" : {
            "coding" : [{
              "system" : "urn:ietf:bcp:47",
              "code" : "sv",
              "display" : "Swedish"
            }]
          }
        }]
      }]
    }
  },
  {
    "fullUrl" : "https://hl7-eu.github.io/unicom-ig/branches/mpd-r4b/AdministrableProductDefinition/Amlodistad-5mg-Tablet-SE-IS-AdministrableProductDefinition",
    "resource" : {
      "resourceType" : "AdministrableProductDefinition",
      "id" : "Amlodistad-5mg-Tablet-SE-IS-AdministrableProductDefinition",
      "meta" : {
        "profile" : ["http://unicom-project.eu/fhir/StructureDefinition/PPLAdministrableProductDefinition"]
      },
      "text" : {
        "status" : "generated",
        "div" : "<div xmlns=\"http://www.w3.org/1999/xhtml\"><a name=\"AdministrableProductDefinition_Amlodistad-5mg-Tablet-SE-IS-AdministrableProductDefinition\"> </a><p class=\"res-header-id\"><b>Generated Narrative: AdministrableProductDefinition Amlodistad-5mg-Tablet-SE-IS-AdministrableProductDefinition</b></p><a name=\"Amlodistad-5mg-Tablet-SE-IS-AdministrableProductDefinition\"> </a><a name=\"hcAmlodistad-5mg-Tablet-SE-IS-AdministrableProductDefinition\"> </a><a name=\"Amlodistad-5mg-Tablet-SE-IS-AdministrableProductDefinition-en-US\"> </a><p><b>status</b>: Active</p><p><b>formOf</b>: <a href=\"Bundle-Amlodistad-5mg-Tablet-SE-IS-MedicinalProductDefinition-BBDL.html#MedicinalProductDefinition_Amlodistad-5mg-Tablet-SE-IS-MedicinalProductDefinition\">Bundle: type = collection</a></p><p><b>administrableDoseForm</b>: <span title=\"Codes:{https://spor.ema.europa.eu/v1/lists/200000000004 100000073664}\">Tablet</span></p><p><b>unitOfPresentation</b>: <span title=\"Codes:{https://spor.ema.europa.eu/v1/lists/200000000014 200000002152}\">Tablet</span></p><p><b>producedFrom</b>: <a href=\"Bundle-Amlodistad-5mg-Tablet-SE-IS-MedicinalProductDefinition-BBDL.html#ManufacturedItemDefinition_Amlodistad-5mg-Tablet-SE-IS-ManufacturedItemDefinition\">Bundle: type = collection</a></p><h3>RouteOfAdministrations</h3><table class=\"grid\"><tr><td style=\"display: none\">-</td><td><b>Code</b></td></tr><tr><td style=\"display: none\">*</td><td><span title=\"Codes:{https://spor.ema.europa.eu/v1/lists/100000073345 100000073619}\">Oral use</span></td></tr></table></div>"
      },
      "status" : "active",
      "formOf" : [{
        "reference" : "MedicinalProductDefinition/Amlodistad-5mg-Tablet-SE-IS-MedicinalProductDefinition"
      }],
      "administrableDoseForm" : {
        "coding" : [{
          "system" : "https://spor.ema.europa.eu/v1/lists/200000000004",
          "code" : "100000073664",
          "display" : "Tablet"
        }]
      },
      "unitOfPresentation" : {
        "coding" : [{
          "system" : "https://spor.ema.europa.eu/v1/lists/200000000014",
          "code" : "200000002152",
          "display" : "Tablet"
        }]
      },
      "producedFrom" : [{
        "reference" : "ManufacturedItemDefinition/Amlodistad-5mg-Tablet-SE-IS-ManufacturedItemDefinition"
      }],
      "routeOfAdministration" : [{
        "code" : {
          "coding" : [{
            "system" : "https://spor.ema.europa.eu/v1/lists/100000073345",
            "code" : "100000073619",
            "display" : "Oral use"
          }]
        }
      }]
    }
  },
  {
    "fullUrl" : "https://hl7-eu.github.io/unicom-ig/branches/mpd-r4b/RegulatedAuthorization/Amlodistad-5mg-Tablet-SE-IS-RegulatedAuthorization",
    "resource" : {
      "resourceType" : "RegulatedAuthorization",
      "id" : "Amlodistad-5mg-Tablet-SE-IS-RegulatedAuthorization",
      "meta" : {
        "profile" : ["http://unicom-project.eu/fhir/StructureDefinition/PPLRegulatedAuthorization"]
      },
      "text" : {
        "status" : "generated",
        "div" : "<div xmlns=\"http://www.w3.org/1999/xhtml\"><a name=\"RegulatedAuthorization_Amlodistad-5mg-Tablet-SE-IS-RegulatedAuthorization\"> </a><p class=\"res-header-id\"><b>Generated Narrative: RegulatedAuthorization Amlodistad-5mg-Tablet-SE-IS-RegulatedAuthorization</b></p><a name=\"Amlodistad-5mg-Tablet-SE-IS-RegulatedAuthorization\"> </a><a name=\"hcAmlodistad-5mg-Tablet-SE-IS-RegulatedAuthorization\"> </a><a name=\"Amlodistad-5mg-Tablet-SE-IS-RegulatedAuthorization-en-US\"> </a><p><b>identifier</b>: 50371</p><p><b>subject</b>: <a href=\"Bundle-Amlodistad-5mg-Tablet-SE-IS-MedicinalProductDefinition-BBDL.html#MedicinalProductDefinition_Amlodistad-5mg-Tablet-SE-IS-MedicinalProductDefinition\">Bundle: type = collection</a></p><p><b>type</b>: <span title=\"Codes:{https://spor.ema.europa.eu/v1/lists/220000000060 220000000061}\">Marketing Authorisation</span></p><p><b>region</b>: <span title=\"Codes:{https://spor.ema.europa.eu/v1/lists/100000000002 100000000535}\">Kingdom of Sweden</span></p><p><b>status</b>: <span title=\"Codes:{https://spor.ema.europa.eu/v1/lists/100000072049 100000072099}\">Valid</span></p><p><b>statusDate</b>: 2015-01-22</p><p><b>holder</b>: <a href=\"Bundle-Amlodistad-10mg-Tablet-SE-IS-MedicinalProductDefinition-BBDL.html#Organization_LOC-100001022-StadaArzneimittel\">Bundle: type = collection</a></p></div>"
      },
      "identifier" : [{
        "value" : "50371"
      }],
      "subject" : [{
        "reference" : "MedicinalProductDefinition/Amlodistad-5mg-Tablet-SE-IS-MedicinalProductDefinition"
      }],
      "type" : {
        "coding" : [{
          "system" : "https://spor.ema.europa.eu/v1/lists/220000000060",
          "code" : "220000000061",
          "display" : "Marketing Authorisation"
        }]
      },
      "region" : [{
        "coding" : [{
          "system" : "https://spor.ema.europa.eu/v1/lists/100000000002",
          "code" : "100000000535",
          "display" : "Kingdom of Sweden"
        }]
      }],
      "status" : {
        "coding" : [{
          "system" : "https://spor.ema.europa.eu/v1/lists/100000072049",
          "code" : "100000072099",
          "display" : "Valid"
        }]
      },
      "statusDate" : "2015-01-22",
      "holder" : {
        "reference" : "Organization/LOC-100001022-StadaArzneimittel"
      }
    }
  },
  {
    "fullUrl" : "https://hl7-eu.github.io/unicom-ig/branches/mpd-r4b/Organization-LOC-100001022-StadaArzneimittel",
    "resource" : {
      "resourceType" : "Organization",
      "id" : "LOC-100001022-StadaArzneimittel",
      "meta" : {
        "profile" : ["http://unicom-project.eu/fhir/StructureDefinition/PPLOrganization"]
      },
      "text" : {
        "status" : "generated",
        "div" : "<div xmlns=\"http://www.w3.org/1999/xhtml\"><a name=\"Organization_LOC-100001022-StadaArzneimittel\"> </a><p class=\"res-header-id\"><b>Generated Narrative: Organization LOC-100001022-StadaArzneimittel</b></p><a name=\"LOC-100001022-StadaArzneimittel\"> </a><a name=\"hcLOC-100001022-StadaArzneimittel\"> </a><a name=\"LOC-100001022-StadaArzneimittel-en-US\"> </a><p><b>identifier</b>: <code>https://spor.ema.europa.eu/v1/locations</code>/LOC-100001022-StadaArzneimittel</p><p><b>name</b>: STADA Arzneimittel AG</p></div>"
      },
      "identifier" : [{
        "system" : "https://spor.ema.europa.eu/v1/locations",
        "value" : "LOC-100001022-StadaArzneimittel"
      }],
      "name" : "STADA Arzneimittel AG"
    }
  },
  {
    "fullUrl" : "https://hl7-eu.github.io/unicom-ig/branches/mpd-r4b/PackagedProductDefinition/Amlodistad-5mg-Tablet-SE-IS-PackagedProductDefinition01",
    "resource" : {
      "resourceType" : "PackagedProductDefinition",
      "id" : "Amlodistad-5mg-Tablet-SE-IS-PackagedProductDefinition01",
      "meta" : {
        "profile" : ["http://unicom-project.eu/fhir/StructureDefinition/PPLPackagedProductDefinition"]
      },
      "text" : {
        "status" : "generated",
        "div" : "<div xmlns=\"http://www.w3.org/1999/xhtml\"><a name=\"PackagedProductDefinition_Amlodistad-5mg-Tablet-SE-IS-PackagedProductDefinition01\"> </a><p class=\"res-header-id\"><b>Generated Narrative: PackagedProductDefinition Amlodistad-5mg-Tablet-SE-IS-PackagedProductDefinition01</b></p><a name=\"Amlodistad-5mg-Tablet-SE-IS-PackagedProductDefinition01\"> </a><a name=\"hcAmlodistad-5mg-Tablet-SE-IS-PackagedProductDefinition01\"> </a><a name=\"Amlodistad-5mg-Tablet-SE-IS-PackagedProductDefinition01-en-US\"> </a><p><b>identifier</b>: <code>http://ema.europa.eu/example/pcid</code>/?ngen-9?</p><p><b>packageFor</b>: <a href=\"Bundle-Amlodistad-5mg-Tablet-SE-IS-MedicinalProductDefinition-BBDL.html#MedicinalProductDefinition_Amlodistad-5mg-Tablet-SE-IS-MedicinalProductDefinition\">Bundle: type = collection</a></p><p><b>containedItemQuantity</b>: 10 Tablet<span style=\"background: LightGoldenRodYellow\"> (Details: Unit of Presentation EMA  code200000002152 = 'Tablet')</span></p><p><b>description</b>: </p><div><p>Blister, 100 tabletter</p>\n</div><h3>MarketingStatuses</h3><table class=\"grid\"><tr><td style=\"display: none\">-</td><td><b>Country</b></td><td><b>Status</b></td></tr><tr><td style=\"display: none\">*</td><td><span title=\"Codes:{https://spor.ema.europa.eu/v1/lists/100000000002 100000000535}\">Kingdom of Sweden</span></td><td><span title=\"Codes:{https://spor.ema.europa.eu/v1/lists/100000072052 100000072083}\">Marketed</span></td></tr></table><blockquote><p><b>packaging</b></p><p><b>type</b>: <span title=\"Codes:{https://spor.ema.europa.eu/v1/lists/100000073346 100000073498}\">Box</span></p><p><b>quantity</b>: 1</p><p><b>material</b>: <span title=\"Codes:{https://spor.ema.europa.eu/v1/lists/200000003199 200000003529}\">Cardboard</span></p><blockquote><p><b>packaging</b></p></blockquote></blockquote></div>"
      },
      "identifier" : [{
        "system" : "http://ema.europa.eu/example/pcid"
      }],
      "packageFor" : [{
        "reference" : "MedicinalProductDefinition/Amlodistad-5mg-Tablet-SE-IS-MedicinalProductDefinition"
      }],
      "containedItemQuantity" : [{
        "value" : 10,
        "unit" : "Tablet",
        "system" : "https://spor.ema.europa.eu/v1/lists/200000000014",
        "code" : "200000002152"
      }],
      "description" : "Blister, 100 tabletter",
      "marketingStatus" : [{
        "country" : {
          "coding" : [{
            "system" : "https://spor.ema.europa.eu/v1/lists/100000000002",
            "code" : "100000000535",
            "display" : "Kingdom of Sweden"
          }]
        },
        "status" : {
          "coding" : [{
            "system" : "https://spor.ema.europa.eu/v1/lists/100000072052",
            "code" : "100000072083",
            "display" : "Marketed"
          }]
        }
      }],
      "packaging" : {
        "type" : {
          "coding" : [{
            "system" : "https://spor.ema.europa.eu/v1/lists/100000073346",
            "code" : "100000073498",
            "display" : "Box"
          }]
        },
        "quantity" : 1,
        "material" : [{
          "coding" : [{
            "system" : "https://spor.ema.europa.eu/v1/lists/200000003199",
            "code" : "200000003529",
            "display" : "Cardboard"
          }]
        }],
        "packaging" : [{
          "type" : {
            "coding" : [{
              "system" : "https://spor.ema.europa.eu/v1/lists/100000073346",
              "code" : "100000073496",
              "display" : "Blister"
            }]
          },
          "quantity" : 10,
          "material" : [{
            "coding" : [{
              "system" : "https://spor.ema.europa.eu/v1/lists/200000003199",
              "code" : "200000003222",
              "display" : "PolyVinyl Chloride"
            }]
          },
          {
            "coding" : [{
              "system" : "https://spor.ema.europa.eu/v1/lists/200000003199",
              "code" : "200000003214",
              "display" : "PolyEthylene"
            }]
          },
          {
            "coding" : [{
              "system" : "https://spor.ema.europa.eu/v1/lists/200000003199",
              "code" : "200000003225",
              "display" : "PolyVinylidene Chloride"
            }]
          },
          {
            "coding" : [{
              "system" : "https://spor.ema.europa.eu/v1/lists/200000003199",
              "code" : "200000003200",
              "display" : "Aluminium"
            }]
          }],
          "containedItem" : [{
            "item" : {
              "reference" : {
                "reference" : "ManufacturedItemDefinition/Amlodistad-5mg-Tablet-SE-IS-ManufacturedItemDefinition"
              }
            },
            "amount" : {
              "value" : 10,
              "unit" : "Tablet",
              "system" : "https://spor.ema.europa.eu/v1/lists/200000000014",
              "code" : "200000002152"
            }
          }]
        }]
      }
    }
  },
  {
    "fullUrl" : "https://hl7-eu.github.io/unicom-ig/branches/mpd-r4b/PackagedProductDefinition/Amlodistad-5mg-Tablet-SE-IS-PackagedProductDefinition02",
    "resource" : {
      "resourceType" : "PackagedProductDefinition",
      "id" : "Amlodistad-5mg-Tablet-SE-IS-PackagedProductDefinition02",
      "meta" : {
        "profile" : ["http://unicom-project.eu/fhir/StructureDefinition/PPLPackagedProductDefinition"]
      },
      "text" : {
        "status" : "generated",
        "div" : "<div xmlns=\"http://www.w3.org/1999/xhtml\"><a name=\"PackagedProductDefinition_Amlodistad-5mg-Tablet-SE-IS-PackagedProductDefinition02\"> </a><p class=\"res-header-id\"><b>Generated Narrative: PackagedProductDefinition Amlodistad-5mg-Tablet-SE-IS-PackagedProductDefinition02</b></p><a name=\"Amlodistad-5mg-Tablet-SE-IS-PackagedProductDefinition02\"> </a><a name=\"hcAmlodistad-5mg-Tablet-SE-IS-PackagedProductDefinition02\"> </a><a name=\"Amlodistad-5mg-Tablet-SE-IS-PackagedProductDefinition02-en-US\"> </a><p><b>identifier</b>: <code>http://ema.europa.eu/example/pcid</code>/?ngen-9?</p><p><b>packageFor</b>: <a href=\"Bundle-Amlodistad-5mg-Tablet-SE-IS-MedicinalProductDefinition-BBDL.html#MedicinalProductDefinition_Amlodistad-5mg-Tablet-SE-IS-MedicinalProductDefinition\">Bundle: type = collection</a></p><p><b>containedItemQuantity</b>: 30 Tablet<span style=\"background: LightGoldenRodYellow\"> (Details: Unit of Presentation EMA  code200000002152 = 'Tablet')</span></p><p><b>description</b>: </p><div><p>Blister, 30 tabletter</p>\n</div><h3>MarketingStatuses</h3><table class=\"grid\"><tr><td style=\"display: none\">-</td><td><b>Country</b></td><td><b>Status</b></td></tr><tr><td style=\"display: none\">*</td><td><span title=\"Codes:{https://spor.ema.europa.eu/v1/lists/100000000002 100000000535}\">Kingdom of Sweden</span></td><td><span title=\"Codes:{https://spor.ema.europa.eu/v1/lists/100000072052 100000072083}\">Marketed</span></td></tr></table><blockquote><p><b>packaging</b></p><p><b>type</b>: <span title=\"Codes:{https://spor.ema.europa.eu/v1/lists/100000073346 100000073498}\">Box</span></p><p><b>quantity</b>: 1</p><p><b>material</b>: <span title=\"Codes:{https://spor.ema.europa.eu/v1/lists/200000003199 200000003529}\">Cardboard</span></p><blockquote><p><b>packaging</b></p></blockquote></blockquote></div>"
      },
      "identifier" : [{
        "system" : "http://ema.europa.eu/example/pcid"
      }],
      "packageFor" : [{
        "reference" : "MedicinalProductDefinition/Amlodistad-5mg-Tablet-SE-IS-MedicinalProductDefinition"
      }],
      "containedItemQuantity" : [{
        "value" : 30,
        "unit" : "Tablet",
        "system" : "https://spor.ema.europa.eu/v1/lists/200000000014",
        "code" : "200000002152"
      }],
      "description" : "Blister, 30 tabletter",
      "marketingStatus" : [{
        "country" : {
          "coding" : [{
            "system" : "https://spor.ema.europa.eu/v1/lists/100000000002",
            "code" : "100000000535",
            "display" : "Kingdom of Sweden"
          }]
        },
        "status" : {
          "coding" : [{
            "system" : "https://spor.ema.europa.eu/v1/lists/100000072052",
            "code" : "100000072083",
            "display" : "Marketed"
          }]
        }
      }],
      "packaging" : {
        "type" : {
          "coding" : [{
            "system" : "https://spor.ema.europa.eu/v1/lists/100000073346",
            "code" : "100000073498",
            "display" : "Box"
          }]
        },
        "quantity" : 1,
        "material" : [{
          "coding" : [{
            "system" : "https://spor.ema.europa.eu/v1/lists/200000003199",
            "code" : "200000003529",
            "display" : "Cardboard"
          }]
        }],
        "packaging" : [{
          "type" : {
            "coding" : [{
              "system" : "https://spor.ema.europa.eu/v1/lists/100000073346",
              "code" : "100000073496",
              "display" : "Blister"
            }]
          },
          "quantity" : 3,
          "material" : [{
            "coding" : [{
              "system" : "https://spor.ema.europa.eu/v1/lists/200000003199",
              "code" : "200000003222",
              "display" : "PolyVinyl Chloride"
            }]
          },
          {
            "coding" : [{
              "system" : "https://spor.ema.europa.eu/v1/lists/200000003199",
              "code" : "200000003214",
              "display" : "PolyEthylene"
            }]
          },
          {
            "coding" : [{
              "system" : "https://spor.ema.europa.eu/v1/lists/200000003199",
              "code" : "200000003225",
              "display" : "PolyVinylidene Chloride"
            }]
          },
          {
            "coding" : [{
              "system" : "https://spor.ema.europa.eu/v1/lists/200000003199",
              "code" : "200000003200",
              "display" : "Aluminium"
            }]
          }],
          "containedItem" : [{
            "item" : {
              "reference" : {
                "reference" : "ManufacturedItemDefinition/Amlodistad-5mg-Tablet-SE-IS-ManufacturedItemDefinition"
              }
            },
            "amount" : {
              "value" : 10,
              "unit" : "Tablet",
              "system" : "https://spor.ema.europa.eu/v1/lists/200000000014",
              "code" : "200000002152"
            }
          }]
        }]
      }
    }
  },
  {
    "fullUrl" : "https://hl7-eu.github.io/unicom-ig/branches/mpd-r4b/ManufacturedItemDefinition/Amlodistad-5mg-Tablet-SE-IS-ManufacturedItemDefinition",
    "resource" : {
      "resourceType" : "ManufacturedItemDefinition",
      "id" : "Amlodistad-5mg-Tablet-SE-IS-ManufacturedItemDefinition",
      "meta" : {
        "profile" : ["http://unicom-project.eu/fhir/StructureDefinition/PPLManufacturedItemDefinition"]
      },
      "text" : {
        "status" : "generated",
        "div" : "<div xmlns=\"http://www.w3.org/1999/xhtml\"><a name=\"ManufacturedItemDefinition_Amlodistad-5mg-Tablet-SE-IS-ManufacturedItemDefinition\"> </a><p class=\"res-header-id\"><b>Generated Narrative: ManufacturedItemDefinition Amlodistad-5mg-Tablet-SE-IS-ManufacturedItemDefinition</b></p><a name=\"Amlodistad-5mg-Tablet-SE-IS-ManufacturedItemDefinition\"> </a><a name=\"hcAmlodistad-5mg-Tablet-SE-IS-ManufacturedItemDefinition\"> </a><a name=\"Amlodistad-5mg-Tablet-SE-IS-ManufacturedItemDefinition-en-US\"> </a><p><b>status</b>: Active</p><p><b>manufacturedDoseForm</b>: <span title=\"Codes:{https://spor.ema.europa.eu/v1/lists/200000000004 100000073664}\">Tablet</span></p><p><b>unitOfPresentation</b>: <span title=\"Codes:{https://spor.ema.europa.eu/v1/lists/200000000014 200000002152}\">Tablet</span></p></div>"
      },
      "status" : "active",
      "manufacturedDoseForm" : {
        "coding" : [{
          "system" : "https://spor.ema.europa.eu/v1/lists/200000000004",
          "code" : "100000073664",
          "display" : "Tablet"
        }]
      },
      "unitOfPresentation" : {
        "coding" : [{
          "system" : "https://spor.ema.europa.eu/v1/lists/200000000014",
          "code" : "200000002152",
          "display" : "Tablet"
        }]
      }
    }
  },
  {
    "fullUrl" : "https://hl7-eu.github.io/unicom-ig/branches/mpd-r4b/Ingredient/Amlodistad-5mg-Tablet-SE-IS-Ingredient",
    "resource" : {
      "resourceType" : "Ingredient",
      "id" : "Amlodistad-5mg-Tablet-SE-IS-Ingredient",
      "meta" : {
        "profile" : ["http://unicom-project.eu/fhir/StructureDefinition/PPLIngredient"]
      },
      "text" : {
        "status" : "generated",
        "div" : "<div xmlns=\"http://www.w3.org/1999/xhtml\"><a name=\"Ingredient_Amlodistad-5mg-Tablet-SE-IS-Ingredient\"> </a><p class=\"res-header-id\"><b>Generated Narrative: Ingredient Amlodistad-5mg-Tablet-SE-IS-Ingredient</b></p><a name=\"Amlodistad-5mg-Tablet-SE-IS-Ingredient\"> </a><a name=\"hcAmlodistad-5mg-Tablet-SE-IS-Ingredient\"> </a><a name=\"Amlodistad-5mg-Tablet-SE-IS-Ingredient-en-US\"> </a><p><b>status</b>: Active</p><p><b>for</b>: </p><ul><li><a href=\"Bundle-Amlodistad-5mg-Tablet-SE-IS-MedicinalProductDefinition-BBDL.html#MedicinalProductDefinition_Amlodistad-5mg-Tablet-SE-IS-MedicinalProductDefinition\">Bundle: type = collection</a></li><li><a href=\"Bundle-Amlodistad-5mg-Tablet-SE-IS-MedicinalProductDefinition-BBDL.html#ManufacturedItemDefinition_Amlodistad-5mg-Tablet-SE-IS-ManufacturedItemDefinition\">Bundle: type = collection</a></li><li><a href=\"Bundle-Amlodistad-5mg-Tablet-SE-IS-MedicinalProductDefinition-BBDL.html#AdministrableProductDefinition_Amlodistad-5mg-Tablet-SE-IS-AdministrableProductDefinition\">Bundle: type = collection</a></li></ul><p><b>role</b>: <span title=\"Codes:{https://spor.ema.europa.eu/v1/lists/100000072050 100000072072}\">Active</span></p><blockquote><p><b>substance</b></p><h3>Codes</h3><table class=\"grid\"><tr><td style=\"display: none\">-</td><td><b>Concept</b></td></tr><tr><td style=\"display: none\">*</td><td><span title=\"Codes:{https://spor.ema.europa.eu/v2/SubstanceDefinition 100000090079}\">Amlodipine besilate</span></td></tr></table><blockquote><p><b>strength</b></p><p><b>presentation</b>: 6.94 milligram(s)<span style=\"background: LightGoldenRodYellow\"> (Details: Unit of Measurement EMA  code100000110655 = 'milligram(s)')</span>/1 unit(s)<span style=\"background: LightGoldenRodYellow\"> (Details: Unit of Measurement EMA  code100000110756 = 'unit(s)')</span></p><blockquote><p><b>referenceStrength</b></p><h3>Substances</h3><table class=\"grid\"><tr><td style=\"display: none\">-</td><td><b>Concept</b></td></tr><tr><td style=\"display: none\">*</td><td><span title=\"Codes:{https://spor.ema.europa.eu/v2/SubstanceDefinition 100000085259}\">Amlodipine</span></td></tr></table><p><b>strength</b>: 5 milligram(s)<span style=\"background: LightGoldenRodYellow\"> (Details: Unit of Measurement EMA  code100000110655 = 'milligram(s)')</span>/1 unit(s)<span style=\"background: LightGoldenRodYellow\"> (Details: Unit of Measurement EMA  code100000110756 = 'unit(s)')</span></p></blockquote></blockquote></blockquote></div>"
      },
      "status" : "active",
      "for" : [{
        "reference" : "MedicinalProductDefinition/Amlodistad-5mg-Tablet-SE-IS-MedicinalProductDefinition"
      },
      {
        "reference" : "ManufacturedItemDefinition/Amlodistad-5mg-Tablet-SE-IS-ManufacturedItemDefinition"
      },
      {
        "reference" : "AdministrableProductDefinition/Amlodistad-5mg-Tablet-SE-IS-AdministrableProductDefinition"
      }],
      "role" : {
        "coding" : [{
          "system" : "https://spor.ema.europa.eu/v1/lists/100000072050",
          "code" : "100000072072",
          "display" : "Active"
        }]
      },
      "substance" : {
        "code" : {
          "concept" : {
            "coding" : [{
              "system" : "https://spor.ema.europa.eu/v2/SubstanceDefinition",
              "code" : "100000090079",
              "display" : "Amlodipine besilate"
            }]
          }
        },
        "strength" : [{
          "presentationRatio" : {
            "numerator" : {
              "value" : 6.94,
              "unit" : "milligram(s)",
              "system" : "https://spor.ema.europa.eu/v1/lists/100000110633",
              "code" : "100000110655"
            },
            "denominator" : {
              "value" : 1,
              "unit" : "unit(s)",
              "system" : "https://spor.ema.europa.eu/v1/lists/100000110633",
              "code" : "100000110756"
            }
          },
          "referenceStrength" : [{
            "substance" : {
              "concept" : {
                "coding" : [{
                  "system" : "https://spor.ema.europa.eu/v2/SubstanceDefinition",
                  "code" : "100000085259",
                  "display" : "Amlodipine"
                }]
              }
            },
            "strengthRatio" : {
              "numerator" : {
                "value" : 5,
                "unit" : "milligram(s)",
                "system" : "https://spor.ema.europa.eu/v1/lists/100000110633",
                "code" : "100000110655"
              },
              "denominator" : {
                "value" : 1,
                "unit" : "unit(s)",
                "system" : "https://spor.ema.europa.eu/v1/lists/100000110633",
                "code" : "100000110756"
              }
            }
          }]
        }]
      }
    }
  }]
}