{
  "resourceType" : "Bundle",
  "id" : "011-Betaklav500-125-EE-FullProduct",
  "type" : "collection",
  "entry" : [{
    "fullUrl" : "https://hl7-eu.github.io/unicom-ig/branches/mpd-r4b/MedicinalProductDefinition-Betaklav-500mg-125mg-EE-MPD",
    "resource" : {
      "resourceType" : "MedicinalProductDefinition",
      "id" : "Betaklav-500mg-125mg-EE-MPD",
      "meta" : {
        "profile" : ["http://unicom-project.eu/fhir/StructureDefinition/PPLMedicinalProductDefinition"]
      },
      "text" : {
        "status" : "generated",
        "div" : "<div xmlns=\"http://www.w3.org/1999/xhtml\"><a name=\"MedicinalProductDefinition_Betaklav-500mg-125mg-EE-MPD\"> </a><p class=\"res-header-id\"><b>Generated Narrative: MedicinalProductDefinition Betaklav-500mg-125mg-EE-MPD</b></p><a name=\"Betaklav-500mg-125mg-EE-MPD\"> </a><a name=\"hcBetaklav-500mg-125mg-EE-MPD\"> </a><a name=\"Betaklav-500mg-125mg-EE-MPD-en-US\"> </a><p><b>identifier</b>: <code>http://ema.europa.eu/fhir/mpId</code>/EE-100009540-30722, <code>http://ema.europa.eu/fhir/pmsId</code>/0000000000006</p><p><b>domain</b>: <span title=\"Codes:{https://spor.ema.europa.eu/v1/lists/100000000004 100000000012}\">Human use</span></p><p><b>status</b>: <span title=\"Codes:{https://spor.ema.europa.eu/v1/lists/200000005003 200000005004}\">Current</span></p><p><b>combinedPharmaceuticalDoseForm</b>: <span title=\"Codes:{https://spor.ema.europa.eu/v1/lists/200000000004 100000073665}\">Film-coated tablet</span></p><p><b>legalStatusOfSupply</b>: <span title=\"Codes:{https://spor.ema.europa.eu/v1/lists/100000072051 100000072084}\">Medicinal Product subject to medical prescription</span></p><p><b>classification</b>: <span title=\"Codes:{https://spor.ema.europa.eu/v1/lists/100000093533 100000096162}\">amoxicillin and beta-lactamase inhibitor</span>, <span title=\"Codes:{http://www.whocc.no/atc J01CR02}\">amoxicillin and beta-lactamase inhibitor</span></p><blockquote><p><b>name</b></p><p><b>productName</b>: Betaklav 500 mg/125 mg õhukese polümeerikattega tabletid</p><blockquote><p><b>part</b></p><p><b>part</b>: Betaklav</p><p><b>type</b>: <span title=\"Codes:{https://spor.ema.europa.eu/v1/lists/220000000000 220000000002}\">Invented name part</span></p></blockquote><blockquote><p><b>part</b></p><p><b>part</b>: 500mg/125mg</p><p><b>type</b>: <span title=\"Codes:{https://spor.ema.europa.eu/v1/lists/220000000000 220000000004}\">Strength part</span></p></blockquote><blockquote><p><b>part</b></p><p><b>part</b>: õhukese polümeerikattega tabletid</p><p><b>type</b>: <span title=\"Codes:{https://spor.ema.europa.eu/v1/lists/220000000000 220000000005}\">Pharmaceutical dose form part</span></p></blockquote><h3>Usages</h3><table class=\"grid\"><tr><td style=\"display: none\">-</td><td><b>Country</b></td><td><b>Language</b></td></tr><tr><td style=\"display: none\">*</td><td><span title=\"Codes:{https://spor.ema.europa.eu/v1/lists/100000000002 100000000388}\">Republic of Estonia</span></td><td><span title=\"Codes:{urn:ietf:bcp:47 et}\">Estonian</span></td></tr></table></blockquote></div>"
      },
      "identifier" : [{
        "system" : "http://ema.europa.eu/fhir/mpId",
        "value" : "EE-100009540-30722"
      },
      {
        "system" : "http://ema.europa.eu/fhir/pmsId",
        "value" : "0000000000006"
      }],
      "domain" : {
        "coding" : [{
          "system" : "https://spor.ema.europa.eu/v1/lists/100000000004",
          "code" : "100000000012",
          "display" : "Human use"
        }]
      },
      "status" : {
        "coding" : [{
          "system" : "https://spor.ema.europa.eu/v1/lists/200000005003",
          "code" : "200000005004",
          "display" : "Current"
        }]
      },
      "combinedPharmaceuticalDoseForm" : {
        "coding" : [{
          "system" : "https://spor.ema.europa.eu/v1/lists/200000000004",
          "code" : "100000073665",
          "display" : "Film-coated tablet"
        }]
      },
      "legalStatusOfSupply" : {
        "coding" : [{
          "system" : "https://spor.ema.europa.eu/v1/lists/100000072051",
          "code" : "100000072084",
          "display" : "Medicinal Product subject to medical prescription"
        }]
      },
      "classification" : [{
        "coding" : [{
          "system" : "https://spor.ema.europa.eu/v1/lists/100000093533",
          "code" : "100000096162",
          "display" : "amoxicillin and beta-lactamase inhibitor"
        }]
      },
      {
        "coding" : [{
          "system" : "http://www.whocc.no/atc",
          "code" : "J01CR02",
          "display" : "amoxicillin and beta-lactamase inhibitor"
        }]
      }],
      "name" : [{
        "productName" : "Betaklav 500 mg/125 mg õhukese polümeerikattega tabletid",
        "part" : [{
          "part" : "Betaklav",
          "type" : {
            "coding" : [{
              "system" : "https://spor.ema.europa.eu/v1/lists/220000000000",
              "code" : "220000000002",
              "display" : "Invented name part"
            }]
          }
        },
        {
          "part" : "500mg/125mg",
          "type" : {
            "coding" : [{
              "system" : "https://spor.ema.europa.eu/v1/lists/220000000000",
              "code" : "220000000004",
              "display" : "Strength part"
            }]
          }
        },
        {
          "part" : "õhukese polümeerikattega tabletid",
          "type" : {
            "coding" : [{
              "system" : "https://spor.ema.europa.eu/v1/lists/220000000000",
              "code" : "220000000005",
              "display" : "Pharmaceutical dose form part"
            }]
          }
        }],
        "usage" : [{
          "country" : {
            "coding" : [{
              "system" : "https://spor.ema.europa.eu/v1/lists/100000000002",
              "code" : "100000000388",
              "display" : "Republic of Estonia"
            }]
          },
          "language" : {
            "coding" : [{
              "system" : "urn:ietf:bcp:47",
              "code" : "et",
              "display" : "Estonian"
            }]
          }
        }]
      }]
    }
  },
  {
    "fullUrl" : "https://hl7-eu.github.io/unicom-ig/branches/mpd-r4b/RegulatedAuthorization-Betaklav-500mg-125mg-EE-RA",
    "resource" : {
      "resourceType" : "RegulatedAuthorization",
      "id" : "Betaklav-500mg-125mg-EE-RA",
      "meta" : {
        "profile" : ["http://unicom-project.eu/fhir/StructureDefinition/PPLRegulatedAuthorization"]
      },
      "text" : {
        "status" : "generated",
        "div" : "<div xmlns=\"http://www.w3.org/1999/xhtml\"><a name=\"RegulatedAuthorization_Betaklav-500mg-125mg-EE-RA\"> </a><p class=\"res-header-id\"><b>Generated Narrative: RegulatedAuthorization Betaklav-500mg-125mg-EE-RA</b></p><a name=\"Betaklav-500mg-125mg-EE-RA\"> </a><a name=\"hcBetaklav-500mg-125mg-EE-RA\"> </a><a name=\"Betaklav-500mg-125mg-EE-RA-en-US\"> </a><p><b>identifier</b>: 879415</p><p><b>subject</b>: <a href=\"Bundle-011-Betaklav500-125-EE-FullProduct.html#MedicinalProductDefinition_Betaklav-500mg-125mg-EE-MPD\">Bundle: type = collection</a></p><p><b>type</b>: <span title=\"Codes:{https://spor.ema.europa.eu/v1/lists/220000000060 220000000061}\">Marketing Authorisation</span></p><p><b>region</b>: <span title=\"Codes:{https://spor.ema.europa.eu/v1/lists/100000000002 100000000388}\">Republic of Estonia</span></p><p><b>status</b>: <span title=\"Codes:{https://spor.ema.europa.eu/v1/lists/100000072049 200000017708}\">Valid - Renewed/Varied</span></p><p><b>statusDate</b>: 2021-02-03</p><p><b>holder</b>: <a href=\"Bundle-011-Betaklav500-125-EE-FullProduct.html#Organization_LOC-100009540-KrkaNovoMesto\">Bundle: type = collection</a></p></div>"
      },
      "identifier" : [{
        "value" : "879415"
      }],
      "subject" : [{
        "reference" : "MedicinalProductDefinition/Betaklav-500mg-125mg-EE-MPD"
      }],
      "type" : {
        "coding" : [{
          "system" : "https://spor.ema.europa.eu/v1/lists/220000000060",
          "code" : "220000000061",
          "display" : "Marketing Authorisation"
        }]
      },
      "region" : [{
        "coding" : [{
          "system" : "https://spor.ema.europa.eu/v1/lists/100000000002",
          "code" : "100000000388",
          "display" : "Republic of Estonia"
        }]
      }],
      "status" : {
        "coding" : [{
          "system" : "https://spor.ema.europa.eu/v1/lists/100000072049",
          "code" : "200000017708",
          "display" : "Valid - Renewed/Varied"
        }]
      },
      "statusDate" : "2021-02-03",
      "holder" : {
        "reference" : "Organization/LOC-100009540-KrkaNovoMesto"
      }
    }
  },
  {
    "fullUrl" : "https://hl7-eu.github.io/unicom-ig/branches/mpd-r4b/Organization-LOC-100009540-KrkaNovoMesto",
    "resource" : {
      "resourceType" : "Organization",
      "id" : "LOC-100009540-KrkaNovoMesto",
      "meta" : {
        "profile" : ["http://unicom-project.eu/fhir/StructureDefinition/PPLOrganization"]
      },
      "text" : {
        "status" : "generated",
        "div" : "<div xmlns=\"http://www.w3.org/1999/xhtml\"><a name=\"Organization_LOC-100009540-KrkaNovoMesto\"> </a><p class=\"res-header-id\"><b>Generated Narrative: Organization LOC-100009540-KrkaNovoMesto</b></p><a name=\"LOC-100009540-KrkaNovoMesto\"> </a><a name=\"hcLOC-100009540-KrkaNovoMesto\"> </a><a name=\"LOC-100009540-KrkaNovoMesto-en-US\"> </a><p><b>identifier</b>: <code>https://spor.ema.europa.eu/v1/locations</code>/LOC-100009540, <code>https://spor.ema.europa.eu/v1/organisations</code>/ORG-100000627</p><p><b>name</b>: KRKA, d.d., Novo mesto</p></div>"
      },
      "identifier" : [{
        "system" : "https://spor.ema.europa.eu/v1/locations",
        "value" : "LOC-100009540"
      },
      {
        "system" : "https://spor.ema.europa.eu/v1/organisations",
        "value" : "ORG-100000627"
      }],
      "name" : "KRKA, d.d., Novo mesto"
    }
  },
  {
    "fullUrl" : "https://hl7-eu.github.io/unicom-ig/branches/mpd-r4b/AdministrableProductDefinition-Betaklav-500mg-125mg-EE-APD",
    "resource" : {
      "resourceType" : "AdministrableProductDefinition",
      "id" : "Betaklav-500mg-125mg-EE-APD",
      "meta" : {
        "profile" : ["http://unicom-project.eu/fhir/StructureDefinition/PPLAdministrableProductDefinition"]
      },
      "text" : {
        "status" : "generated",
        "div" : "<div xmlns=\"http://www.w3.org/1999/xhtml\"><a name=\"AdministrableProductDefinition_Betaklav-500mg-125mg-EE-APD\"> </a><p class=\"res-header-id\"><b>Generated Narrative: AdministrableProductDefinition Betaklav-500mg-125mg-EE-APD</b></p><a name=\"Betaklav-500mg-125mg-EE-APD\"> </a><a name=\"hcBetaklav-500mg-125mg-EE-APD\"> </a><a name=\"Betaklav-500mg-125mg-EE-APD-en-US\"> </a><p><b>status</b>: Active</p><p><b>formOf</b>: <a href=\"Bundle-011-Betaklav500-125-EE-FullProduct.html#MedicinalProductDefinition_Betaklav-500mg-125mg-EE-MPD\">Bundle: type = collection</a></p><p><b>administrableDoseForm</b>: <span title=\"Codes:{https://spor.ema.europa.eu/v1/lists/200000000004 100000073665}\">Film-coated tablet</span></p><p><b>unitOfPresentation</b>: <span title=\"Codes:{https://spor.ema.europa.eu/v1/lists/200000000014 200000002152}\">Tablet</span></p><p><b>producedFrom</b>: <a href=\"Bundle-011-Betaklav500-125-EE-FullProduct.html#ManufacturedItemDefinition_Betaklav-500mg-125mg-EE-MID\">Bundle: type = collection</a></p><h3>RouteOfAdministrations</h3><table class=\"grid\"><tr><td style=\"display: none\">-</td><td><b>Code</b></td></tr><tr><td style=\"display: none\">*</td><td><span title=\"Codes:{https://spor.ema.europa.eu/v1/lists/100000073345 100000073619}\">Oral use</span></td></tr></table></div>"
      },
      "status" : "active",
      "formOf" : [{
        "reference" : "MedicinalProductDefinition/Betaklav-500mg-125mg-EE-MPD"
      }],
      "administrableDoseForm" : {
        "coding" : [{
          "system" : "https://spor.ema.europa.eu/v1/lists/200000000004",
          "code" : "100000073665",
          "display" : "Film-coated tablet"
        }]
      },
      "unitOfPresentation" : {
        "coding" : [{
          "system" : "https://spor.ema.europa.eu/v1/lists/200000000014",
          "code" : "200000002152",
          "display" : "Tablet"
        }]
      },
      "producedFrom" : [{
        "reference" : "ManufacturedItemDefinition/Betaklav-500mg-125mg-EE-MID"
      }],
      "routeOfAdministration" : [{
        "code" : {
          "coding" : [{
            "system" : "https://spor.ema.europa.eu/v1/lists/100000073345",
            "code" : "100000073619",
            "display" : "Oral use"
          }]
        }
      }]
    }
  },
  {
    "fullUrl" : "https://hl7-eu.github.io/unicom-ig/branches/mpd-r4b/ManufacturedItemDefinition-Betaklav-500mg-125mg-EE-MID",
    "resource" : {
      "resourceType" : "ManufacturedItemDefinition",
      "id" : "Betaklav-500mg-125mg-EE-MID",
      "meta" : {
        "profile" : ["http://unicom-project.eu/fhir/StructureDefinition/PPLManufacturedItemDefinition"]
      },
      "text" : {
        "status" : "generated",
        "div" : "<div xmlns=\"http://www.w3.org/1999/xhtml\"><a name=\"ManufacturedItemDefinition_Betaklav-500mg-125mg-EE-MID\"> </a><p class=\"res-header-id\"><b>Generated Narrative: ManufacturedItemDefinition Betaklav-500mg-125mg-EE-MID</b></p><a name=\"Betaklav-500mg-125mg-EE-MID\"> </a><a name=\"hcBetaklav-500mg-125mg-EE-MID\"> </a><a name=\"Betaklav-500mg-125mg-EE-MID-en-US\"> </a><p><b>status</b>: Active</p><p><b>manufacturedDoseForm</b>: <span title=\"Codes:{https://spor.ema.europa.eu/v1/lists/200000000004 100000073665}\">Film-coated tablet</span></p><p><b>unitOfPresentation</b>: <span title=\"Codes:{https://spor.ema.europa.eu/v1/lists/200000000014 200000002152}\">Tablet</span></p></div>"
      },
      "status" : "active",
      "manufacturedDoseForm" : {
        "coding" : [{
          "system" : "https://spor.ema.europa.eu/v1/lists/200000000004",
          "code" : "100000073665",
          "display" : "Film-coated tablet"
        }]
      },
      "unitOfPresentation" : {
        "coding" : [{
          "system" : "https://spor.ema.europa.eu/v1/lists/200000000014",
          "code" : "200000002152",
          "display" : "Tablet"
        }]
      }
    }
  },
  {
    "fullUrl" : "https://hl7-eu.github.io/unicom-ig/branches/mpd-r4b/Ingredient-Betaklav-500mg-125mg-EE-I-100000092629",
    "resource" : {
      "resourceType" : "Ingredient",
      "id" : "Betaklav-500mg-125mg-EE-I-100000092629",
      "meta" : {
        "profile" : ["http://unicom-project.eu/fhir/StructureDefinition/PPLIngredient"]
      },
      "text" : {
        "status" : "generated",
        "div" : "<div xmlns=\"http://www.w3.org/1999/xhtml\"><a name=\"Ingredient_Betaklav-500mg-125mg-EE-I-100000092629\"> </a><p class=\"res-header-id\"><b>Generated Narrative: Ingredient Betaklav-500mg-125mg-EE-I-100000092629</b></p><a name=\"Betaklav-500mg-125mg-EE-I-100000092629\"> </a><a name=\"hcBetaklav-500mg-125mg-EE-I-100000092629\"> </a><a name=\"Betaklav-500mg-125mg-EE-I-100000092629-en-US\"> </a><p><b>status</b>: Active</p><p><b>for</b>: </p><ul><li><a href=\"Bundle-011-Betaklav500-125-EE-FullProduct.html#MedicinalProductDefinition_Betaklav-500mg-125mg-EE-MPD\">Bundle: type = collection</a></li><li><a href=\"Bundle-011-Betaklav500-125-EE-FullProduct.html#ManufacturedItemDefinition_Betaklav-500mg-125mg-EE-MID\">Bundle: type = collection</a></li><li><a href=\"Bundle-011-Betaklav500-125-EE-FullProduct.html#AdministrableProductDefinition_Betaklav-500mg-125mg-EE-APD\">Bundle: type = collection</a></li></ul><p><b>role</b>: <span title=\"Codes:{https://spor.ema.europa.eu/v1/lists/100000072050 100000072072}\">Active</span></p><blockquote><p><b>substance</b></p><h3>Codes</h3><table class=\"grid\"><tr><td style=\"display: none\">-</td><td><b>Concept</b></td></tr><tr><td style=\"display: none\">*</td><td><span title=\"Codes:{https://spor.ema.europa.eu/v2/SubstanceDefinition 100000092629}\">AMOXICILLIN TRIHYDRATE</span></td></tr></table><blockquote><p><b>strength</b></p><p><b>presentation</b>: 573.892 milligram(s)<span style=\"background: LightGoldenRodYellow\"> (Details: Unit of Measurement EMA  code100000110655 = 'milligram(s)')</span>/1 tablet<span style=\"background: LightGoldenRodYellow\"> (Details: Unit of Presentation EMA  code200000002152 = 'Tablet')</span></p><blockquote><p><b>referenceStrength</b></p><h3>Substances</h3><table class=\"grid\"><tr><td style=\"display: none\">-</td><td><b>Concept</b></td></tr><tr><td style=\"display: none\">*</td><td><span title=\"Codes:{https://spor.ema.europa.eu/v2/SubstanceDefinition 100000091596}\">Amoxicillin</span></td></tr></table><p><b>strength</b>: 500 milligram(s)<span style=\"background: LightGoldenRodYellow\"> (Details: Unit of Measurement EMA  code100000110655 = 'milligram(s)')</span>/1 tablet<span style=\"background: LightGoldenRodYellow\"> (Details: Unit of Presentation EMA  code200000002152 = 'Tablet')</span></p></blockquote></blockquote></blockquote></div>"
      },
      "status" : "active",
      "for" : [{
        "reference" : "MedicinalProductDefinition/Betaklav-500mg-125mg-EE-MPD"
      },
      {
        "reference" : "ManufacturedItemDefinition/Betaklav-500mg-125mg-EE-MID"
      },
      {
        "reference" : "AdministrableProductDefinition/Betaklav-500mg-125mg-EE-APD"
      }],
      "role" : {
        "coding" : [{
          "system" : "https://spor.ema.europa.eu/v1/lists/100000072050",
          "code" : "100000072072",
          "display" : "Active"
        }]
      },
      "substance" : {
        "code" : {
          "concept" : {
            "coding" : [{
              "system" : "https://spor.ema.europa.eu/v2/SubstanceDefinition",
              "code" : "100000092629",
              "display" : "AMOXICILLIN TRIHYDRATE"
            }]
          }
        },
        "strength" : [{
          "presentationRatio" : {
            "numerator" : {
              "value" : 573.892,
              "unit" : "milligram(s)",
              "system" : "https://spor.ema.europa.eu/v1/lists/100000110633",
              "code" : "100000110655"
            },
            "denominator" : {
              "value" : 1,
              "unit" : "tablet",
              "system" : "https://spor.ema.europa.eu/v1/lists/200000000014",
              "code" : "200000002152"
            }
          },
          "referenceStrength" : [{
            "substance" : {
              "concept" : {
                "coding" : [{
                  "system" : "https://spor.ema.europa.eu/v2/SubstanceDefinition",
                  "code" : "100000091596",
                  "display" : "Amoxicillin"
                }]
              }
            },
            "strengthRatio" : {
              "numerator" : {
                "value" : 500,
                "unit" : "milligram(s)",
                "system" : "https://spor.ema.europa.eu/v1/lists/100000110633",
                "code" : "100000110655"
              },
              "denominator" : {
                "value" : 1,
                "unit" : "tablet",
                "system" : "https://spor.ema.europa.eu/v1/lists/200000000014",
                "code" : "200000002152"
              }
            }
          }]
        }]
      }
    }
  },
  {
    "fullUrl" : "https://hl7-eu.github.io/unicom-ig/branches/mpd-r4b/Ingredient-Betaklav-500mg-125mg-EE-I-100000093061",
    "resource" : {
      "resourceType" : "Ingredient",
      "id" : "Betaklav-500mg-125mg-EE-I-100000093061",
      "meta" : {
        "profile" : ["http://unicom-project.eu/fhir/StructureDefinition/PPLIngredient"]
      },
      "text" : {
        "status" : "generated",
        "div" : "<div xmlns=\"http://www.w3.org/1999/xhtml\"><a name=\"Ingredient_Betaklav-500mg-125mg-EE-I-100000093061\"> </a><p class=\"res-header-id\"><b>Generated Narrative: Ingredient Betaklav-500mg-125mg-EE-I-100000093061</b></p><a name=\"Betaklav-500mg-125mg-EE-I-100000093061\"> </a><a name=\"hcBetaklav-500mg-125mg-EE-I-100000093061\"> </a><a name=\"Betaklav-500mg-125mg-EE-I-100000093061-en-US\"> </a><p><b>status</b>: Active</p><p><b>for</b>: </p><ul><li><a href=\"Bundle-011-Betaklav500-125-EE-FullProduct.html#MedicinalProductDefinition_Betaklav-500mg-125mg-EE-MPD\">Bundle: type = collection</a></li><li><a href=\"Bundle-011-Betaklav500-125-EE-FullProduct.html#ManufacturedItemDefinition_Betaklav-500mg-125mg-EE-MID\">Bundle: type = collection</a></li><li><a href=\"Bundle-011-Betaklav500-125-EE-FullProduct.html#AdministrableProductDefinition_Betaklav-500mg-125mg-EE-APD\">Bundle: type = collection</a></li></ul><p><b>role</b>: <span title=\"Codes:{https://spor.ema.europa.eu/v1/lists/100000072050 100000072072}\">Active</span></p><blockquote><p><b>substance</b></p><h3>Codes</h3><table class=\"grid\"><tr><td style=\"display: none\">-</td><td><b>Concept</b></td></tr><tr><td style=\"display: none\">*</td><td><span title=\"Codes:{https://spor.ema.europa.eu/v2/SubstanceDefinition 100000093061}\">POTASSIUM CLAVULANATE</span></td></tr></table><blockquote><p><b>strength</b></p><p><b>presentation</b>: 151.915 milligram(s)<span style=\"background: LightGoldenRodYellow\"> (Details: Unit of Measurement EMA  code100000110655 = 'milligram(s)')</span>/1 tablet<span style=\"background: LightGoldenRodYellow\"> (Details: Unit of Presentation EMA  code200000002152 = 'Tablet')</span></p><blockquote><p><b>referenceStrength</b></p><h3>Substances</h3><table class=\"grid\"><tr><td style=\"display: none\">-</td><td><b>Concept</b></td></tr><tr><td style=\"display: none\">*</td><td><span title=\"Codes:{https://spor.ema.europa.eu/v2/SubstanceDefinition 100000089842}\">CLAVULANIC ACID</span></td></tr></table><p><b>strength</b>: 125 milligram(s)<span style=\"background: LightGoldenRodYellow\"> (Details: Unit of Measurement EMA  code100000110655 = 'milligram(s)')</span>/1 tablet<span style=\"background: LightGoldenRodYellow\"> (Details: Unit of Presentation EMA  code200000002152 = 'Tablet')</span></p></blockquote></blockquote></blockquote></div>"
      },
      "status" : "active",
      "for" : [{
        "reference" : "MedicinalProductDefinition/Betaklav-500mg-125mg-EE-MPD"
      },
      {
        "reference" : "ManufacturedItemDefinition/Betaklav-500mg-125mg-EE-MID"
      },
      {
        "reference" : "AdministrableProductDefinition/Betaklav-500mg-125mg-EE-APD"
      }],
      "role" : {
        "coding" : [{
          "system" : "https://spor.ema.europa.eu/v1/lists/100000072050",
          "code" : "100000072072",
          "display" : "Active"
        }]
      },
      "substance" : {
        "code" : {
          "concept" : {
            "coding" : [{
              "system" : "https://spor.ema.europa.eu/v2/SubstanceDefinition",
              "code" : "100000093061",
              "display" : "POTASSIUM CLAVULANATE"
            }]
          }
        },
        "strength" : [{
          "presentationRatio" : {
            "numerator" : {
              "value" : 151.915,
              "unit" : "milligram(s)",
              "system" : "https://spor.ema.europa.eu/v1/lists/100000110633",
              "code" : "100000110655"
            },
            "denominator" : {
              "value" : 1,
              "unit" : "tablet",
              "system" : "https://spor.ema.europa.eu/v1/lists/200000000014",
              "code" : "200000002152"
            }
          },
          "referenceStrength" : [{
            "substance" : {
              "concept" : {
                "coding" : [{
                  "system" : "https://spor.ema.europa.eu/v2/SubstanceDefinition",
                  "code" : "100000089842",
                  "display" : "CLAVULANIC ACID"
                }]
              }
            },
            "strengthRatio" : {
              "numerator" : {
                "value" : 125,
                "unit" : "milligram(s)",
                "system" : "https://spor.ema.europa.eu/v1/lists/100000110633",
                "code" : "100000110655"
              },
              "denominator" : {
                "value" : 1,
                "unit" : "tablet",
                "system" : "https://spor.ema.europa.eu/v1/lists/200000000014",
                "code" : "200000002152"
              }
            }
          }]
        }]
      }
    }
  },
  {
    "fullUrl" : "https://hl7-eu.github.io/unicom-ig/branches/mpd-r4b/PackagedProductDefinition-Betaklav-500mg-125mg-EE-PPD-1635117",
    "resource" : {
      "resourceType" : "PackagedProductDefinition",
      "id" : "Betaklav-500mg-125mg-EE-PPD-1635117",
      "meta" : {
        "profile" : ["http://unicom-project.eu/fhir/StructureDefinition/PPLPackagedProductDefinition"]
      },
      "text" : {
        "status" : "generated",
        "div" : "<div xmlns=\"http://www.w3.org/1999/xhtml\"><a name=\"PackagedProductDefinition_Betaklav-500mg-125mg-EE-PPD-1635117\"> </a><p class=\"res-header-id\"><b>Generated Narrative: PackagedProductDefinition Betaklav-500mg-125mg-EE-PPD-1635117</b></p><a name=\"Betaklav-500mg-125mg-EE-PPD-1635117\"> </a><a name=\"hcBetaklav-500mg-125mg-EE-PPD-1635117\"> </a><a name=\"Betaklav-500mg-125mg-EE-PPD-1635117-en-US\"> </a><p><b>identifier</b>: <code>http://ema.europa.eu/example/pcid</code>/EE-100009540-30722-1635117</p><p><b>packageFor</b>: <a href=\"Bundle-011-Betaklav500-125-EE-FullProduct.html#MedicinalProductDefinition_Betaklav-500mg-125mg-EE-MPD\">Bundle: type = collection</a></p><p><b>containedItemQuantity</b>: 10 tablet<span style=\"background: LightGoldenRodYellow\"> (Details: Unit of Presentation EMA  code200000002152 = 'Tablet')</span></p><p><b>description</b>: </p><div><p>Ribapakend (Al/Al) 10 õhukese polümeerikattega tabletti karbis</p>\n</div><h3>MarketingStatuses</h3><table class=\"grid\"><tr><td style=\"display: none\">-</td><td><b>Country</b></td><td><b>Status</b></td></tr><tr><td style=\"display: none\">*</td><td><span title=\"Codes:{https://spor.ema.europa.eu/v1/lists/100000000002 100000000388}\">Republic of Estonia</span></td><td><span title=\"Codes:{https://spor.ema.europa.eu/v1/lists/100000072052 100000072083}\">Marketed</span></td></tr></table><blockquote><p><b>packaging</b></p><p><b>type</b>: <span title=\"Codes:{https://spor.ema.europa.eu/v1/lists/100000073346 100000073498}\">Box</span></p><p><b>quantity</b>: 1</p><p><b>material</b>: <span title=\"Codes:{https://spor.ema.europa.eu/v1/lists/200000003199 200000003529}\">Cardboard</span></p><blockquote><p><b>packaging</b></p></blockquote></blockquote></div>"
      },
      "identifier" : [{
        "system" : "http://ema.europa.eu/example/pcid",
        "value" : "EE-100009540-30722-1635117"
      }],
      "packageFor" : [{
        "reference" : "MedicinalProductDefinition/Betaklav-500mg-125mg-EE-MPD"
      }],
      "containedItemQuantity" : [{
        "value" : 10,
        "unit" : "tablet",
        "system" : "https://spor.ema.europa.eu/v1/lists/200000000014",
        "code" : "200000002152"
      }],
      "description" : "Ribapakend (Al/Al) 10 õhukese polümeerikattega tabletti karbis",
      "marketingStatus" : [{
        "country" : {
          "coding" : [{
            "system" : "https://spor.ema.europa.eu/v1/lists/100000000002",
            "code" : "100000000388",
            "display" : "Republic of Estonia"
          }]
        },
        "status" : {
          "coding" : [{
            "system" : "https://spor.ema.europa.eu/v1/lists/100000072052",
            "code" : "100000072083",
            "display" : "Marketed"
          }]
        }
      }],
      "packaging" : {
        "type" : {
          "coding" : [{
            "system" : "https://spor.ema.europa.eu/v1/lists/100000073346",
            "code" : "100000073498",
            "display" : "Box"
          }]
        },
        "quantity" : 1,
        "material" : [{
          "coding" : [{
            "system" : "https://spor.ema.europa.eu/v1/lists/200000003199",
            "code" : "200000003529",
            "display" : "Cardboard"
          }]
        }],
        "packaging" : [{
          "type" : {
            "coding" : [{
              "system" : "https://spor.ema.europa.eu/v1/lists/100000073346",
              "code" : "100000073559",
              "display" : "Strip"
            }]
          },
          "quantity" : 1,
          "material" : [{
            "coding" : [{
              "system" : "https://spor.ema.europa.eu/v1/lists/200000003199",
              "code" : "200000003200",
              "display" : "Aluminium"
            }]
          }],
          "containedItem" : [{
            "item" : {
              "reference" : {
                "reference" : "ManufacturedItemDefinition/Betaklav-500mg-125mg-EE-MID"
              }
            },
            "amount" : {
              "value" : 10
            }
          }]
        }]
      }
    }
  },
  {
    "fullUrl" : "https://hl7-eu.github.io/unicom-ig/branches/mpd-r4b/PackagedProductDefinition-Betaklav-500mg-125mg-EE-PPD-1635207",
    "resource" : {
      "resourceType" : "PackagedProductDefinition",
      "id" : "Betaklav-500mg-125mg-EE-PPD-1635207",
      "meta" : {
        "profile" : ["http://unicom-project.eu/fhir/StructureDefinition/PPLPackagedProductDefinition"]
      },
      "text" : {
        "status" : "generated",
        "div" : "<div xmlns=\"http://www.w3.org/1999/xhtml\"><a name=\"PackagedProductDefinition_Betaklav-500mg-125mg-EE-PPD-1635207\"> </a><p class=\"res-header-id\"><b>Generated Narrative: PackagedProductDefinition Betaklav-500mg-125mg-EE-PPD-1635207</b></p><a name=\"Betaklav-500mg-125mg-EE-PPD-1635207\"> </a><a name=\"hcBetaklav-500mg-125mg-EE-PPD-1635207\"> </a><a name=\"Betaklav-500mg-125mg-EE-PPD-1635207-en-US\"> </a><p><b>identifier</b>: <code>http://ema.europa.eu/example/pcid</code>/EE-100009540-30722-1635207</p><p><b>packageFor</b>: <a href=\"Bundle-011-Betaklav500-125-EE-FullProduct.html#MedicinalProductDefinition_Betaklav-500mg-125mg-EE-MPD\">Bundle: type = collection</a></p><p><b>containedItemQuantity</b>: 500 tablet<span style=\"background: LightGoldenRodYellow\"> (Details: Unit of Presentation EMA  code200000002152 = 'Tablet')</span></p><p><b>description</b>: </p><div><p>Ribapakend (Al/Al) 500 õhukese polümeerikattega tabletti karbis</p>\n</div><h3>MarketingStatuses</h3><table class=\"grid\"><tr><td style=\"display: none\">-</td><td><b>Country</b></td><td><b>Status</b></td></tr><tr><td style=\"display: none\">*</td><td><span title=\"Codes:{https://spor.ema.europa.eu/v1/lists/100000000002 100000000388}\">Republic of Estonia</span></td><td><span title=\"Codes:{https://spor.ema.europa.eu/v1/lists/100000072052 100000072083}\">Marketed</span></td></tr></table><blockquote><p><b>packaging</b></p><p><b>type</b>: <span title=\"Codes:{https://spor.ema.europa.eu/v1/lists/100000073346 100000073498}\">Box</span></p><p><b>quantity</b>: 1</p><p><b>material</b>: <span title=\"Codes:{https://spor.ema.europa.eu/v1/lists/200000003199 200000003529}\">Cardboard</span></p><blockquote><p><b>packaging</b></p></blockquote></blockquote></div>"
      },
      "identifier" : [{
        "system" : "http://ema.europa.eu/example/pcid",
        "value" : "EE-100009540-30722-1635207"
      }],
      "packageFor" : [{
        "reference" : "MedicinalProductDefinition/Betaklav-500mg-125mg-EE-MPD"
      }],
      "containedItemQuantity" : [{
        "value" : 500,
        "unit" : "tablet",
        "system" : "https://spor.ema.europa.eu/v1/lists/200000000014",
        "code" : "200000002152"
      }],
      "description" : "Ribapakend (Al/Al) 500 õhukese polümeerikattega tabletti karbis",
      "marketingStatus" : [{
        "country" : {
          "coding" : [{
            "system" : "https://spor.ema.europa.eu/v1/lists/100000000002",
            "code" : "100000000388",
            "display" : "Republic of Estonia"
          }]
        },
        "status" : {
          "coding" : [{
            "system" : "https://spor.ema.europa.eu/v1/lists/100000072052",
            "code" : "100000072083",
            "display" : "Marketed"
          }]
        }
      }],
      "packaging" : {
        "type" : {
          "coding" : [{
            "system" : "https://spor.ema.europa.eu/v1/lists/100000073346",
            "code" : "100000073498",
            "display" : "Box"
          }]
        },
        "quantity" : 1,
        "material" : [{
          "coding" : [{
            "system" : "https://spor.ema.europa.eu/v1/lists/200000003199",
            "code" : "200000003529",
            "display" : "Cardboard"
          }]
        }],
        "packaging" : [{
          "type" : {
            "coding" : [{
              "system" : "https://spor.ema.europa.eu/v1/lists/100000073346",
              "code" : "100000073559",
              "display" : "Strip"
            }]
          },
          "quantity" : 1,
          "material" : [{
            "coding" : [{
              "system" : "https://spor.ema.europa.eu/v1/lists/200000003199",
              "code" : "200000003200",
              "display" : "Aluminium"
            }]
          }],
          "containedItem" : [{
            "item" : {
              "reference" : {
                "reference" : "ManufacturedItemDefinition/Betaklav-500mg-125mg-EE-MID"
              }
            },
            "amount" : {
              "value" : 500
            }
          }]
        }]
      }
    }
  },
  {
    "fullUrl" : "https://hl7-eu.github.io/unicom-ig/branches/mpd-r4b/PackagedProductDefinition-Betaklav-500mg-125mg-EE-PPD-1635139",
    "resource" : {
      "resourceType" : "PackagedProductDefinition",
      "id" : "Betaklav-500mg-125mg-EE-PPD-1635139",
      "meta" : {
        "profile" : ["http://unicom-project.eu/fhir/StructureDefinition/PPLPackagedProductDefinition"]
      },
      "text" : {
        "status" : "generated",
        "div" : "<div xmlns=\"http://www.w3.org/1999/xhtml\"><a name=\"PackagedProductDefinition_Betaklav-500mg-125mg-EE-PPD-1635139\"> </a><p class=\"res-header-id\"><b>Generated Narrative: PackagedProductDefinition Betaklav-500mg-125mg-EE-PPD-1635139</b></p><a name=\"Betaklav-500mg-125mg-EE-PPD-1635139\"> </a><a name=\"hcBetaklav-500mg-125mg-EE-PPD-1635139\"> </a><a name=\"Betaklav-500mg-125mg-EE-PPD-1635139-en-US\"> </a><p><b>identifier</b>: <code>http://ema.europa.eu/example/pcid</code>/EE-100009540-30722-1635139</p><p><b>packageFor</b>: <a href=\"Bundle-011-Betaklav500-125-EE-FullProduct.html#MedicinalProductDefinition_Betaklav-500mg-125mg-EE-MPD\">Bundle: type = collection</a></p><p><b>containedItemQuantity</b>: 14 tablet<span style=\"background: LightGoldenRodYellow\"> (Details: Unit of Presentation EMA  code200000002152 = 'Tablet')</span></p><p><b>description</b>: </p><div><p>Blisterpakend (OPA/Al/PVC foil/Al foil) 14 õhukese polümeerikattega tabletti karbis</p>\n</div><h3>MarketingStatuses</h3><table class=\"grid\"><tr><td style=\"display: none\">-</td><td><b>Country</b></td><td><b>Status</b></td></tr><tr><td style=\"display: none\">*</td><td><span title=\"Codes:{https://spor.ema.europa.eu/v1/lists/100000000002 100000000388}\">Republic of Estonia</span></td><td><span title=\"Codes:{https://spor.ema.europa.eu/v1/lists/100000072052 100000072083}\">Marketed</span></td></tr></table><blockquote><p><b>packaging</b></p><p><b>type</b>: <span title=\"Codes:{https://spor.ema.europa.eu/v1/lists/100000073346 100000073498}\">Box</span></p><p><b>quantity</b>: 1</p><p><b>material</b>: <span title=\"Codes:{https://spor.ema.europa.eu/v1/lists/200000003199 200000003529}\">Cardboard</span></p><blockquote><p><b>packaging</b></p></blockquote></blockquote></div>"
      },
      "identifier" : [{
        "system" : "http://ema.europa.eu/example/pcid",
        "value" : "EE-100009540-30722-1635139"
      }],
      "packageFor" : [{
        "reference" : "MedicinalProductDefinition/Betaklav-500mg-125mg-EE-MPD"
      }],
      "containedItemQuantity" : [{
        "value" : 14,
        "unit" : "tablet",
        "system" : "https://spor.ema.europa.eu/v1/lists/200000000014",
        "code" : "200000002152"
      }],
      "description" : "Blisterpakend (OPA/Al/PVC foil/Al foil) 14 õhukese polümeerikattega tabletti karbis",
      "marketingStatus" : [{
        "country" : {
          "coding" : [{
            "system" : "https://spor.ema.europa.eu/v1/lists/100000000002",
            "code" : "100000000388",
            "display" : "Republic of Estonia"
          }]
        },
        "status" : {
          "coding" : [{
            "system" : "https://spor.ema.europa.eu/v1/lists/100000072052",
            "code" : "100000072083",
            "display" : "Marketed"
          }]
        }
      }],
      "packaging" : {
        "type" : {
          "coding" : [{
            "system" : "https://spor.ema.europa.eu/v1/lists/100000073346",
            "code" : "100000073498",
            "display" : "Box"
          }]
        },
        "quantity" : 1,
        "material" : [{
          "coding" : [{
            "system" : "https://spor.ema.europa.eu/v1/lists/200000003199",
            "code" : "200000003529",
            "display" : "Cardboard"
          }]
        }],
        "packaging" : [{
          "type" : {
            "coding" : [{
              "system" : "https://spor.ema.europa.eu/v1/lists/100000073346",
              "code" : "100000073496",
              "display" : "Blister"
            }]
          },
          "quantity" : 1,
          "material" : [{
            "coding" : [{
              "system" : "https://spor.ema.europa.eu/v1/lists/200000003199",
              "code" : "200000003210",
              "display" : "Orientated PolyAmide"
            }]
          },
          {
            "coding" : [{
              "system" : "https://spor.ema.europa.eu/v1/lists/200000003199",
              "code" : "200000003200",
              "display" : "Aluminium"
            }]
          },
          {
            "coding" : [{
              "system" : "https://spor.ema.europa.eu/v1/lists/200000003199",
              "code" : "200000003222",
              "display" : "PolyVinyl Chloride"
            }]
          }],
          "containedItem" : [{
            "item" : {
              "reference" : {
                "reference" : "ManufacturedItemDefinition/Betaklav-500mg-125mg-EE-MID"
              }
            },
            "amount" : {
              "value" : 14
            }
          }]
        }]
      }
    }
  }]
}