{
  "resourceType" : "Bundle",
  "id" : "004-Cefuroxime-MIP-1500mg-EE-FullProduct",
  "type" : "collection",
  "entry" : [{
    "fullUrl" : "https://hl7-eu.github.io/unicom-ig/branches/mpd-r4b/MedicinalProductDefinition-Cefuroxime-MIP-1500mg-EE-MPD",
    "resource" : {
      "resourceType" : "MedicinalProductDefinition",
      "id" : "Cefuroxime-MIP-1500mg-EE-MPD",
      "meta" : {
        "profile" : ["http://unicom-project.eu/fhir/StructureDefinition/PPLMedicinalProductDefinition"]
      },
      "text" : {
        "status" : "generated",
        "div" : "<div xmlns=\"http://www.w3.org/1999/xhtml\"><a name=\"MedicinalProductDefinition_Cefuroxime-MIP-1500mg-EE-MPD\"> </a><p class=\"res-header-id\"><b>Generated Narrative: MedicinalProductDefinition Cefuroxime-MIP-1500mg-EE-MPD</b></p><a name=\"Cefuroxime-MIP-1500mg-EE-MPD\"> </a><a name=\"hcCefuroxime-MIP-1500mg-EE-MPD\"> </a><a name=\"Cefuroxime-MIP-1500mg-EE-MPD-en-US\"> </a><p><b>identifier</b>: <code>http://ema.europa.eu/fhir/mpId</code>/EE-100009199-27834, <code>http://ema.europa.eu/fhir/pmsId</code>/EE0000002</p><p><b>domain</b>: <span title=\"Codes:{https://spor.ema.europa.eu/v1/lists/100000000004 100000000012}\">Human use</span></p><p><b>status</b>: <span title=\"Codes:{https://spor.ema.europa.eu/v1/lists/200000005003 200000005004}\">Current</span></p><p><b>combinedPharmaceuticalDoseForm</b>: <span title=\"Codes:{https://spor.ema.europa.eu/v1/lists/200000000004 100000116186}\">Powder for solution for injection/infusion</span></p><p><b>legalStatusOfSupply</b>: <span title=\"Codes:{https://spor.ema.europa.eu/v1/lists/100000072051 100000072084}\">Medicinal Product subject to medical prescription</span></p><p><b>classification</b>: <span title=\"Codes:{https://spor.ema.europa.eu/v1/lists/100000093533 100000096183}\">Cefuroxime</span>, <span title=\"Codes:{http://www.whocc.no/atc J01DC02}\">cefuroxime</span></p><blockquote><p><b>name</b></p><p><b>productName</b>: Cefuroxime MIP 1500 mg, süste-/infusioonilahuse pulber</p><blockquote><p><b>part</b></p><p><b>part</b>: Cefuroxime MIP</p><p><b>type</b>: <span title=\"Codes:{https://spor.ema.europa.eu/v1/lists/220000000000 220000000002}\">Invented name part</span></p></blockquote><blockquote><p><b>part</b></p><p><b>part</b>: 1500 MG</p><p><b>type</b>: <span title=\"Codes:{https://spor.ema.europa.eu/v1/lists/220000000000 220000000004}\">Strength part</span></p></blockquote><h3>Usages</h3><table class=\"grid\"><tr><td style=\"display: none\">-</td><td><b>Country</b></td><td><b>Language</b></td></tr><tr><td style=\"display: none\">*</td><td><span title=\"Codes:{https://spor.ema.europa.eu/v1/lists/100000000002 100000000388}\">Republic of Estonia</span></td><td><span title=\"Codes:{urn:ietf:bcp:47 et}\">Estonian</span></td></tr></table></blockquote></div>"
      },
      "identifier" : [{
        "system" : "http://ema.europa.eu/fhir/mpId",
        "value" : "EE-100009199-27834"
      },
      {
        "system" : "http://ema.europa.eu/fhir/pmsId",
        "value" : "EE0000002"
      }],
      "domain" : {
        "coding" : [{
          "system" : "https://spor.ema.europa.eu/v1/lists/100000000004",
          "code" : "100000000012",
          "display" : "Human use"
        }]
      },
      "status" : {
        "coding" : [{
          "system" : "https://spor.ema.europa.eu/v1/lists/200000005003",
          "code" : "200000005004",
          "display" : "Current"
        }]
      },
      "combinedPharmaceuticalDoseForm" : {
        "coding" : [{
          "system" : "https://spor.ema.europa.eu/v1/lists/200000000004",
          "code" : "100000116186",
          "display" : "Powder for solution for injection/infusion"
        }]
      },
      "legalStatusOfSupply" : {
        "coding" : [{
          "system" : "https://spor.ema.europa.eu/v1/lists/100000072051",
          "code" : "100000072084",
          "display" : "Medicinal Product subject to medical prescription"
        }]
      },
      "classification" : [{
        "coding" : [{
          "system" : "https://spor.ema.europa.eu/v1/lists/100000093533",
          "code" : "100000096183",
          "display" : "Cefuroxime"
        }]
      },
      {
        "coding" : [{
          "system" : "http://www.whocc.no/atc",
          "code" : "J01DC02",
          "display" : "cefuroxime"
        }]
      }],
      "name" : [{
        "productName" : "Cefuroxime MIP 1500 mg, süste-/infusioonilahuse pulber",
        "part" : [{
          "part" : "Cefuroxime MIP",
          "type" : {
            "coding" : [{
              "system" : "https://spor.ema.europa.eu/v1/lists/220000000000",
              "code" : "220000000002",
              "display" : "Invented name part"
            }]
          }
        },
        {
          "part" : "1500 MG",
          "type" : {
            "coding" : [{
              "system" : "https://spor.ema.europa.eu/v1/lists/220000000000",
              "code" : "220000000004",
              "display" : "Strength part"
            }]
          }
        }],
        "usage" : [{
          "country" : {
            "coding" : [{
              "system" : "https://spor.ema.europa.eu/v1/lists/100000000002",
              "code" : "100000000388",
              "display" : "Republic of Estonia"
            }]
          },
          "language" : {
            "coding" : [{
              "system" : "urn:ietf:bcp:47",
              "code" : "et",
              "display" : "Estonian"
            }]
          }
        }]
      }]
    }
  },
  {
    "fullUrl" : "https://hl7-eu.github.io/unicom-ig/branches/mpd-r4b/RegulatedAuthorization-Cefuroxime-MIP-1500mg-EE-RA",
    "resource" : {
      "resourceType" : "RegulatedAuthorization",
      "id" : "Cefuroxime-MIP-1500mg-EE-RA",
      "meta" : {
        "profile" : ["http://unicom-project.eu/fhir/StructureDefinition/PPLRegulatedAuthorization"]
      },
      "text" : {
        "status" : "generated",
        "div" : "<div xmlns=\"http://www.w3.org/1999/xhtml\"><a name=\"RegulatedAuthorization_Cefuroxime-MIP-1500mg-EE-RA\"> </a><p class=\"res-header-id\"><b>Generated Narrative: RegulatedAuthorization Cefuroxime-MIP-1500mg-EE-RA</b></p><a name=\"Cefuroxime-MIP-1500mg-EE-RA\"> </a><a name=\"hcCefuroxime-MIP-1500mg-EE-RA\"> </a><a name=\"Cefuroxime-MIP-1500mg-EE-RA-en-US\"> </a><p><b>identifier</b>: 805813</p><p><b>subject</b>: <a href=\"MedicinalProductDefinition-Cefuroxime-MIP-1500mg-EE-MPD.html\">MedicinalProductDefinition: identifier = http://ema.europa.eu/fhir/mpId#EE-100009199-27834,http://ema.europa.eu/fhir/pmsId#EE0000002; domain = Human use; status = Current; combinedPharmaceuticalDoseForm = Powder for solution for injection/infusion; legalStatusOfSupply = Medicinal Product subject to medical prescription; classification = Cefuroxime,cefuroxime</a></p><p><b>type</b>: <span title=\"Codes:{https://spor.ema.europa.eu/v1/lists/220000000060 220000000061}\">Marketing Authorisation</span></p><p><b>region</b>: <span title=\"Codes:{https://spor.ema.europa.eu/v1/lists/100000000002 100000000388}\">Republic of Estonia</span></p><p><b>status</b>: <span title=\"Codes:{https://spor.ema.europa.eu/v1/lists/100000072049 200000017708}\">Valid - Renewed/Varied</span></p><p><b>statusDate</b>: 2017-12-06</p><p><b>holder</b>: <a href=\"Organization-LOC-100009199-Mip.html\">Organization Mip Pharma GmbH</a></p></div>"
      },
      "identifier" : [{
        "value" : "805813"
      }],
      "subject" : [{
        "reference" : "MedicinalProductDefinition/Cefuroxime-MIP-1500mg-EE-MPD"
      }],
      "type" : {
        "coding" : [{
          "system" : "https://spor.ema.europa.eu/v1/lists/220000000060",
          "code" : "220000000061",
          "display" : "Marketing Authorisation"
        }]
      },
      "region" : [{
        "coding" : [{
          "system" : "https://spor.ema.europa.eu/v1/lists/100000000002",
          "code" : "100000000388",
          "display" : "Republic of Estonia"
        }]
      }],
      "status" : {
        "coding" : [{
          "system" : "https://spor.ema.europa.eu/v1/lists/100000072049",
          "code" : "200000017708",
          "display" : "Valid - Renewed/Varied"
        }]
      },
      "statusDate" : "2017-12-06",
      "holder" : {
        "reference" : "Organization/LOC-100009199-Mip"
      }
    }
  },
  {
    "fullUrl" : "https://hl7-eu.github.io/unicom-ig/branches/mpd-r4b/Organization-LOC-100009199-Mip",
    "resource" : {
      "resourceType" : "Organization",
      "id" : "LOC-100009199-Mip",
      "meta" : {
        "profile" : ["http://unicom-project.eu/fhir/StructureDefinition/PPLOrganization"]
      },
      "text" : {
        "status" : "generated",
        "div" : "<div xmlns=\"http://www.w3.org/1999/xhtml\"><a name=\"Organization_LOC-100009199-Mip\"> </a><p class=\"res-header-id\"><b>Generated Narrative: Organization LOC-100009199-Mip</b></p><a name=\"LOC-100009199-Mip\"> </a><a name=\"hcLOC-100009199-Mip\"> </a><a name=\"LOC-100009199-Mip-en-US\"> </a><p><b>identifier</b>: <code>https://spor.ema.europa.eu/v1/locations</code>/LOC-100009199</p><p><b>name</b>: Mip Pharma GmbH</p></div>"
      },
      "identifier" : [{
        "system" : "https://spor.ema.europa.eu/v1/locations",
        "value" : "LOC-100009199"
      }],
      "name" : "Mip Pharma GmbH"
    }
  },
  {
    "fullUrl" : "https://hl7-eu.github.io/unicom-ig/branches/mpd-r4b/AdministrableProductDefinition-Cefuroxime-MIP-1500mg-EE-APD",
    "resource" : {
      "resourceType" : "AdministrableProductDefinition",
      "id" : "Cefuroxime-MIP-1500mg-EE-APD",
      "meta" : {
        "profile" : ["http://unicom-project.eu/fhir/StructureDefinition/PPLAdministrableProductDefinition"]
      },
      "text" : {
        "status" : "generated",
        "div" : "<div xmlns=\"http://www.w3.org/1999/xhtml\"><a name=\"AdministrableProductDefinition_Cefuroxime-MIP-1500mg-EE-APD\"> </a><p class=\"res-header-id\"><b>Generated Narrative: AdministrableProductDefinition Cefuroxime-MIP-1500mg-EE-APD</b></p><a name=\"Cefuroxime-MIP-1500mg-EE-APD\"> </a><a name=\"hcCefuroxime-MIP-1500mg-EE-APD\"> </a><a name=\"Cefuroxime-MIP-1500mg-EE-APD-en-US\"> </a><p><b>status</b>: Active</p><p><b>formOf</b>: <a href=\"MedicinalProductDefinition-Cefuroxime-MIP-1500mg-EE-MPD.html\">MedicinalProductDefinition: identifier = http://ema.europa.eu/fhir/mpId#EE-100009199-27834,http://ema.europa.eu/fhir/pmsId#EE0000002; domain = Human use; status = Current; combinedPharmaceuticalDoseForm = Powder for solution for injection/infusion; legalStatusOfSupply = Medicinal Product subject to medical prescription; classification = Cefuroxime,cefuroxime</a></p><p><b>administrableDoseForm</b>: <span title=\"Codes:{https://spor.ema.europa.eu/v1/lists/200000000004 100000074038}\">Solution for injection/infusion</span></p><p><b>unitOfPresentation</b>: <span title=\"Codes:{https://spor.ema.europa.eu/v1/lists/200000000014 200000002158}\">Vial</span></p><p><b>producedFrom</b>: <a href=\"ManufacturedItemDefinition-Cefuroxime-MIP-1500mg-EE-MID.html\">ManufacturedItemDefinition: status = active; manufacturedDoseForm = Powder for solution for injection/infusion; unitOfPresentation = Vial</a></p><h3>RouteOfAdministrations</h3><table class=\"grid\"><tr><td style=\"display: none\">-</td><td><b>Code</b></td></tr><tr><td style=\"display: none\">*</td><td><span title=\"Codes:{https://spor.ema.europa.eu/v1/lists/100000073345 100000073600}\">Intramuscular use</span></td></tr></table></div>"
      },
      "status" : "active",
      "formOf" : [{
        "reference" : "MedicinalProductDefinition/Cefuroxime-MIP-1500mg-EE-MPD"
      }],
      "administrableDoseForm" : {
        "coding" : [{
          "system" : "https://spor.ema.europa.eu/v1/lists/200000000004",
          "code" : "100000074038",
          "display" : "Solution for injection/infusion"
        }]
      },
      "unitOfPresentation" : {
        "coding" : [{
          "system" : "https://spor.ema.europa.eu/v1/lists/200000000014",
          "code" : "200000002158",
          "display" : "Vial"
        }]
      },
      "producedFrom" : [{
        "reference" : "ManufacturedItemDefinition/Cefuroxime-MIP-1500mg-EE-MID"
      }],
      "routeOfAdministration" : [{
        "code" : {
          "coding" : [{
            "system" : "https://spor.ema.europa.eu/v1/lists/100000073345",
            "code" : "100000073600",
            "display" : "Intramuscular use"
          }]
        }
      }]
    }
  },
  {
    "fullUrl" : "https://hl7-eu.github.io/unicom-ig/branches/mpd-r4b/ManufacturedItemDefinition-Cefuroxime-MIP-1500mg-EE-MID",
    "resource" : {
      "resourceType" : "ManufacturedItemDefinition",
      "id" : "Cefuroxime-MIP-1500mg-EE-MID",
      "meta" : {
        "profile" : ["http://unicom-project.eu/fhir/StructureDefinition/PPLManufacturedItemDefinition"]
      },
      "text" : {
        "status" : "generated",
        "div" : "<div xmlns=\"http://www.w3.org/1999/xhtml\"><a name=\"ManufacturedItemDefinition_Cefuroxime-MIP-1500mg-EE-MID\"> </a><p class=\"res-header-id\"><b>Generated Narrative: ManufacturedItemDefinition Cefuroxime-MIP-1500mg-EE-MID</b></p><a name=\"Cefuroxime-MIP-1500mg-EE-MID\"> </a><a name=\"hcCefuroxime-MIP-1500mg-EE-MID\"> </a><a name=\"Cefuroxime-MIP-1500mg-EE-MID-en-US\"> </a><p><b>status</b>: Active</p><p><b>manufacturedDoseForm</b>: <span title=\"Codes:{https://spor.ema.europa.eu/v1/lists/200000000004 100000116186}\">Powder for solution for injection/infusion</span></p><p><b>unitOfPresentation</b>: <span title=\"Codes:{https://spor.ema.europa.eu/v1/lists/200000000014 200000002158}\">Vial</span></p></div>"
      },
      "status" : "active",
      "manufacturedDoseForm" : {
        "coding" : [{
          "system" : "https://spor.ema.europa.eu/v1/lists/200000000004",
          "code" : "100000116186",
          "display" : "Powder for solution for injection/infusion"
        }]
      },
      "unitOfPresentation" : {
        "coding" : [{
          "system" : "https://spor.ema.europa.eu/v1/lists/200000000014",
          "code" : "200000002158",
          "display" : "Vial"
        }]
      }
    }
  },
  {
    "fullUrl" : "https://hl7-eu.github.io/unicom-ig/branches/mpd-r4b/Ingredient-Cefuroxime-MIP-1500mg-EE-I",
    "resource" : {
      "resourceType" : "Ingredient",
      "id" : "Cefuroxime-MIP-1500mg-EE-I",
      "text" : {
        "status" : "generated",
        "div" : "<div xmlns=\"http://www.w3.org/1999/xhtml\"><a name=\"Ingredient_Cefuroxime-MIP-1500mg-EE-I\"> </a><p class=\"res-header-id\"><b>Generated Narrative: Ingredient Cefuroxime-MIP-1500mg-EE-I</b></p><a name=\"Cefuroxime-MIP-1500mg-EE-I\"> </a><a name=\"hcCefuroxime-MIP-1500mg-EE-I\"> </a><a name=\"Cefuroxime-MIP-1500mg-EE-I-en-US\"> </a><p><b>status</b>: Active</p><p><b>for</b>: </p><ul><li><a href=\"MedicinalProductDefinition-Cefuroxime-MIP-1500mg-EE-MPD.html\">MedicinalProductDefinition: identifier = http://ema.europa.eu/fhir/mpId#EE-100009199-27834,http://ema.europa.eu/fhir/pmsId#EE0000002; domain = Human use; status = Current; combinedPharmaceuticalDoseForm = Powder for solution for injection/infusion; legalStatusOfSupply = Medicinal Product subject to medical prescription; classification = Cefuroxime,cefuroxime</a></li><li><a href=\"ManufacturedItemDefinition-Cefuroxime-MIP-1500mg-EE-MID.html\">ManufacturedItemDefinition: status = active; manufacturedDoseForm = Powder for solution for injection/infusion; unitOfPresentation = Vial</a></li><li><a href=\"AdministrableProductDefinition-Cefuroxime-MIP-1500mg-EE-APD.html\">AdministrableProductDefinition: status = active; administrableDoseForm = Solution for injection/infusion; unitOfPresentation = Vial</a></li></ul><p><b>role</b>: <span title=\"Codes:{https://spor.ema.europa.eu/v1/lists/100000072050 100000072072}\">Active</span></p><blockquote><p><b>substance</b></p><h3>Codes</h3><table class=\"grid\"><tr><td style=\"display: none\">-</td><td><b>Concept</b></td></tr><tr><td style=\"display: none\">*</td><td><span title=\"Codes:{https://spor.ema.europa.eu/v2/SubstanceDefinition 100000091436}\">CEFUROXIME SODIUM</span></td></tr></table><blockquote><p><b>strength</b></p><p><b>presentation</b>: 1578 milligram(s)<span style=\"background: LightGoldenRodYellow\"> (Details: Unit of Measurement EMA  code100000110655 = 'milligram(s)')</span>/1 Vial<span style=\"background: LightGoldenRodYellow\"> (Details: Unit of Presentation EMA  code200000002158 = 'Vial')</span></p><blockquote><p><b>referenceStrength</b></p><h3>Substances</h3><table class=\"grid\"><tr><td style=\"display: none\">-</td><td><b>Concept</b></td></tr><tr><td style=\"display: none\">*</td><td><span title=\"Codes:{https://spor.ema.europa.eu/v2/SubstanceDefinition 100000092667}\">CEFUROXIME</span></td></tr></table><p><b>strength</b>: 1500 milligram(s)<span style=\"background: LightGoldenRodYellow\"> (Details: Unit of Measurement EMA  code100000110655 = 'milligram(s)')</span>/1 Vial<span style=\"background: LightGoldenRodYellow\"> (Details: Unit of Presentation EMA  code200000002158 = 'Vial')</span></p></blockquote></blockquote></blockquote></div>"
      },
      "status" : "active",
      "for" : [{
        "reference" : "MedicinalProductDefinition/Cefuroxime-MIP-1500mg-EE-MPD"
      },
      {
        "reference" : "ManufacturedItemDefinition/Cefuroxime-MIP-1500mg-EE-MID"
      },
      {
        "reference" : "AdministrableProductDefinition/Cefuroxime-MIP-1500mg-EE-APD"
      }],
      "role" : {
        "coding" : [{
          "system" : "https://spor.ema.europa.eu/v1/lists/100000072050",
          "code" : "100000072072",
          "display" : "Active"
        }]
      },
      "substance" : {
        "code" : {
          "concept" : {
            "coding" : [{
              "system" : "https://spor.ema.europa.eu/v2/SubstanceDefinition",
              "code" : "100000091436",
              "display" : "CEFUROXIME SODIUM"
            }]
          }
        },
        "strength" : [{
          "presentationRatio" : {
            "numerator" : {
              "value" : 1578,
              "unit" : "milligram(s)",
              "system" : "https://spor.ema.europa.eu/v1/lists/100000110633",
              "code" : "100000110655"
            },
            "denominator" : {
              "value" : 1,
              "unit" : "Vial",
              "system" : "https://spor.ema.europa.eu/v1/lists/200000000014",
              "code" : "200000002158"
            }
          },
          "referenceStrength" : [{
            "substance" : {
              "concept" : {
                "coding" : [{
                  "system" : "https://spor.ema.europa.eu/v2/SubstanceDefinition",
                  "code" : "100000092667",
                  "display" : "CEFUROXIME"
                }]
              }
            },
            "strengthRatio" : {
              "numerator" : {
                "value" : 1500,
                "unit" : "milligram(s)",
                "system" : "https://spor.ema.europa.eu/v1/lists/100000110633",
                "code" : "100000110655"
              },
              "denominator" : {
                "value" : 1,
                "unit" : "Vial",
                "system" : "https://spor.ema.europa.eu/v1/lists/200000000014",
                "code" : "200000002158"
              }
            }
          }]
        }]
      }
    }
  },
  {
    "fullUrl" : "https://hl7-eu.github.io/unicom-ig/branches/mpd-r4b/PackagedProductDefinition-Cefuroxime-MIP-1500mg-EE-PPD-1529940",
    "resource" : {
      "resourceType" : "PackagedProductDefinition",
      "id" : "Cefuroxime-MIP-1500mg-EE-PPD-1529940",
      "meta" : {
        "profile" : ["http://unicom-project.eu/fhir/StructureDefinition/PPLPackagedProductDefinition"]
      },
      "text" : {
        "status" : "generated",
        "div" : "<div xmlns=\"http://www.w3.org/1999/xhtml\"><a name=\"PackagedProductDefinition_Cefuroxime-MIP-1500mg-EE-PPD-1529940\"> </a><p class=\"res-header-id\"><b>Generated Narrative: PackagedProductDefinition Cefuroxime-MIP-1500mg-EE-PPD-1529940</b></p><a name=\"Cefuroxime-MIP-1500mg-EE-PPD-1529940\"> </a><a name=\"hcCefuroxime-MIP-1500mg-EE-PPD-1529940\"> </a><a name=\"Cefuroxime-MIP-1500mg-EE-PPD-1529940-en-US\"> </a><p><b>identifier</b>: <code>http://ema.europa.eu/example/pcid</code>/EE-100009199-27834-1529940</p><p><b>packageFor</b>: <a href=\"MedicinalProductDefinition-Cefuroxime-MIP-1500mg-EE-MPD.html\">MedicinalProductDefinition: identifier = http://ema.europa.eu/fhir/mpId#EE-100009199-27834,http://ema.europa.eu/fhir/pmsId#EE0000002; domain = Human use; status = Current; combinedPharmaceuticalDoseForm = Powder for solution for injection/infusion; legalStatusOfSupply = Medicinal Product subject to medical prescription; classification = Cefuroxime,cefuroxime</a></p><p><b>containedItemQuantity</b>: 1 vial<span style=\"background: LightGoldenRodYellow\"> (Details: Unit of Presentation EMA  code200000002158 = 'Vial')</span></p><p><b>description</b>: </p><div><p>I tüüpi klaasist viaal, mis on suletud klorobutüülkummist korgi ning flip-off kattega, 1 viaal</p>\n</div><h3>MarketingStatuses</h3><table class=\"grid\"><tr><td style=\"display: none\">-</td><td><b>Country</b></td><td><b>Status</b></td></tr><tr><td style=\"display: none\">*</td><td><span title=\"Codes:{https://spor.ema.europa.eu/v1/lists/100000000002 100000000388}\">Republic of Estonia</span></td><td><span title=\"Codes:{https://spor.ema.europa.eu/v1/lists/100000072052 100000072083}\">Marketed</span></td></tr></table><blockquote><p><b>packaging</b></p><p><b>type</b>: <span title=\"Codes:{https://spor.ema.europa.eu/v1/lists/100000073346 100000073498}\">Box</span></p><p><b>quantity</b>: 1</p><p><b>material</b>: <span title=\"Codes:{https://spor.ema.europa.eu/v1/lists/200000003199 200000003529}\">Cardboard</span></p><blockquote><p><b>packaging</b></p></blockquote></blockquote></div>"
      },
      "identifier" : [{
        "system" : "http://ema.europa.eu/example/pcid",
        "value" : "EE-100009199-27834-1529940"
      }],
      "packageFor" : [{
        "reference" : "MedicinalProductDefinition/Cefuroxime-MIP-1500mg-EE-MPD"
      }],
      "containedItemQuantity" : [{
        "value" : 1,
        "unit" : "vial",
        "system" : "https://spor.ema.europa.eu/v1/lists/200000000014",
        "code" : "200000002158"
      }],
      "description" : "I tüüpi klaasist viaal, mis on suletud klorobutüülkummist korgi ning flip-off kattega, 1 viaal",
      "marketingStatus" : [{
        "country" : {
          "coding" : [{
            "system" : "https://spor.ema.europa.eu/v1/lists/100000000002",
            "code" : "100000000388",
            "display" : "Republic of Estonia"
          }]
        },
        "status" : {
          "coding" : [{
            "system" : "https://spor.ema.europa.eu/v1/lists/100000072052",
            "code" : "100000072083",
            "display" : "Marketed"
          }]
        }
      }],
      "packaging" : {
        "type" : {
          "coding" : [{
            "system" : "https://spor.ema.europa.eu/v1/lists/100000073346",
            "code" : "100000073498",
            "display" : "Box"
          }]
        },
        "quantity" : 1,
        "material" : [{
          "coding" : [{
            "system" : "https://spor.ema.europa.eu/v1/lists/200000003199",
            "code" : "200000003529",
            "display" : "Cardboard"
          }]
        }],
        "packaging" : [{
          "type" : {
            "coding" : [{
              "system" : "https://spor.ema.europa.eu/v1/lists/100000073346",
              "code" : "100000073563",
              "display" : "vial"
            }]
          },
          "quantity" : 1,
          "material" : [{
            "coding" : [{
              "system" : "https://spor.ema.europa.eu/v1/lists/200000003199",
              "code" : "200000003204",
              "display" : "Glass type I"
            }]
          }],
          "containedItem" : [{
            "item" : {
              "reference" : {
                "reference" : "ManufacturedItemDefinition/Cefuroxime-MIP-1500mg-EE-MID"
              }
            },
            "amount" : {
              "value" : 1
            }
          }]
        }]
      }
    }
  },
  {
    "fullUrl" : "https://hl7-eu.github.io/unicom-ig/branches/mpd-r4b/PackagedProductDefinition-Cefuroxime-MIP-1500mg-EE-PPD-1529962",
    "resource" : {
      "resourceType" : "PackagedProductDefinition",
      "id" : "Cefuroxime-MIP-1500mg-EE-PPD-1529962",
      "meta" : {
        "profile" : ["http://unicom-project.eu/fhir/StructureDefinition/PPLPackagedProductDefinition"]
      },
      "text" : {
        "status" : "generated",
        "div" : "<div xmlns=\"http://www.w3.org/1999/xhtml\"><a name=\"PackagedProductDefinition_Cefuroxime-MIP-1500mg-EE-PPD-1529962\"> </a><p class=\"res-header-id\"><b>Generated Narrative: PackagedProductDefinition Cefuroxime-MIP-1500mg-EE-PPD-1529962</b></p><a name=\"Cefuroxime-MIP-1500mg-EE-PPD-1529962\"> </a><a name=\"hcCefuroxime-MIP-1500mg-EE-PPD-1529962\"> </a><a name=\"Cefuroxime-MIP-1500mg-EE-PPD-1529962-en-US\"> </a><p><b>identifier</b>: <code>http://ema.europa.eu/example/pcid</code>/EE-100009199-27834-1529962</p><p><b>packageFor</b>: <a href=\"MedicinalProductDefinition-Cefuroxime-MIP-1500mg-EE-MPD.html\">MedicinalProductDefinition: identifier = http://ema.europa.eu/fhir/mpId#EE-100009199-27834,http://ema.europa.eu/fhir/pmsId#EE0000002; domain = Human use; status = Current; combinedPharmaceuticalDoseForm = Powder for solution for injection/infusion; legalStatusOfSupply = Medicinal Product subject to medical prescription; classification = Cefuroxime,cefuroxime</a></p><p><b>containedItemQuantity</b>: 10 Vial<span style=\"background: LightGoldenRodYellow\"> (Details: Unit of Presentation EMA  code200000002158 = 'Vial')</span></p><p><b>description</b>: </p><div><p>I tüüpi klaasist viaal, mis on suletud klorobutüülkummist korgi ning flip-off kattega, 10 viaali</p>\n</div><h3>MarketingStatuses</h3><table class=\"grid\"><tr><td style=\"display: none\">-</td><td><b>Country</b></td><td><b>Status</b></td></tr><tr><td style=\"display: none\">*</td><td><span title=\"Codes:{https://spor.ema.europa.eu/v1/lists/100000000002 100000000388}\">Republic of Estonia</span></td><td><span title=\"Codes:{https://spor.ema.europa.eu/v1/lists/100000072052 100000072083}\">Marketed</span></td></tr></table><blockquote><p><b>packaging</b></p><p><b>type</b>: <span title=\"Codes:{https://spor.ema.europa.eu/v1/lists/100000073346 100000073498}\">Box</span></p><p><b>quantity</b>: 1</p><p><b>material</b>: <span title=\"Codes:{https://spor.ema.europa.eu/v1/lists/200000003199 200000003529}\">Cardboard</span></p><blockquote><p><b>packaging</b></p></blockquote></blockquote></div>"
      },
      "identifier" : [{
        "system" : "http://ema.europa.eu/example/pcid",
        "value" : "EE-100009199-27834-1529962"
      }],
      "packageFor" : [{
        "reference" : "MedicinalProductDefinition/Cefuroxime-MIP-1500mg-EE-MPD"
      }],
      "containedItemQuantity" : [{
        "value" : 10,
        "unit" : "Vial",
        "system" : "https://spor.ema.europa.eu/v1/lists/200000000014",
        "code" : "200000002158"
      }],
      "description" : "I tüüpi klaasist viaal, mis on suletud klorobutüülkummist korgi ning flip-off kattega, 10 viaali",
      "marketingStatus" : [{
        "country" : {
          "coding" : [{
            "system" : "https://spor.ema.europa.eu/v1/lists/100000000002",
            "code" : "100000000388",
            "display" : "Republic of Estonia"
          }]
        },
        "status" : {
          "coding" : [{
            "system" : "https://spor.ema.europa.eu/v1/lists/100000072052",
            "code" : "100000072083",
            "display" : "Marketed"
          }]
        }
      }],
      "packaging" : {
        "type" : {
          "coding" : [{
            "system" : "https://spor.ema.europa.eu/v1/lists/100000073346",
            "code" : "100000073498",
            "display" : "Box"
          }]
        },
        "quantity" : 1,
        "material" : [{
          "coding" : [{
            "system" : "https://spor.ema.europa.eu/v1/lists/200000003199",
            "code" : "200000003529",
            "display" : "Cardboard"
          }]
        }],
        "packaging" : [{
          "type" : {
            "coding" : [{
              "system" : "https://spor.ema.europa.eu/v1/lists/100000073346",
              "code" : "100000073563",
              "display" : "vial"
            }]
          },
          "quantity" : 10,
          "material" : [{
            "coding" : [{
              "system" : "https://spor.ema.europa.eu/v1/lists/200000003199",
              "code" : "200000003204",
              "display" : "Glass type I"
            }]
          }],
          "containedItem" : [{
            "item" : {
              "reference" : {
                "reference" : "ManufacturedItemDefinition/Cefuroxime-MIP-1500mg-EE-MID"
              }
            },
            "amount" : {
              "value" : 1
            }
          }]
        }]
      }
    }
  }]
}