<?xml version="1.0" encoding="UTF-8"?>

<Bundle xmlns="http://hl7.org/fhir">
  <id value="AMLkrka-5mg-Tablet-SE-IS-MedicinalProductDefinition-BBDL"/>
  <type value="collection"/>
  <entry>
    <fullUrl value="https://hl7-eu.github.io/unicom-ig/branches/mpd-r4b/MedicinalProductDefinition/AMLkrka-5mg-Tablet-SE-IS-MedicinalProductDefinition"/>
    <resource>
      <MedicinalProductDefinition>
        <id value="AMLkrka-5mg-Tablet-SE-IS-MedicinalProductDefinition"/>
        <meta>
          <lastUpdated value="2022-10-08T10:50:51.604+00:00"/>
          <profile value="http://unicom-project.eu/fhir/StructureDefinition/PPLMedicinalProductDefinition"/>
        </meta>
        <text>
          <status value="generated"/><div xmlns="http://www.w3.org/1999/xhtml"><a name="MedicinalProductDefinition_AMLkrka-5mg-Tablet-SE-IS-MedicinalProductDefinition"> </a><p class="res-header-id"><b>Generated Narrative: MedicinalProductDefinition AMLkrka-5mg-Tablet-SE-IS-MedicinalProductDefinition</b></p><a name="AMLkrka-5mg-Tablet-SE-IS-MedicinalProductDefinition"> </a><a name="hcAMLkrka-5mg-Tablet-SE-IS-MedicinalProductDefinition"> </a><a name="AMLkrka-5mg-Tablet-SE-IS-MedicinalProductDefinition-en-US"> </a><div style="display: inline-block; background-color: #d9e0e7; padding: 6px; margin: 4px; border: 1px solid #8da1b4; border-radius: 5px; line-height: 60%"><p style="margin-bottom: 0px">Last updated: 2022-10-08 10:50:51+0000</p><p style="margin-bottom: 0px">Profile: <a href="StructureDefinition-PPLMedicinalProductDefinition.html">PPL Medicinal Product profile</a></p></div><p><b>identifier</b>: <code>http://ema.europa.eu/fhir/mpId</code>/SE-100002602-00023828</p><p><b>domain</b>: <span title="Codes:{https://spor.ema.europa.eu/v1/lists/100000000004 100000000012}">Human use</span></p><p><b>status</b>: <span title="Codes:{https://spor.ema.europa.eu/v1/lists/200000005003 200000005004}">Current</span></p><p><b>combinedPharmaceuticalDoseForm</b>: <span title="Codes:{https://spor.ema.europa.eu/v1/lists/200000000004 100000073664}">Tablet</span></p><p><b>indication</b>: </p><div><p>Hypertoni Kronisk, stabil angina pectoris Vasospastisk (Prinzmetals) angina</p>
</div><p><b>legalStatusOfSupply</b>: <span title="Codes:{https://spor.ema.europa.eu/v1/lists/100000072051 100000072084}">Medicinal product subject to medical prescription</span></p><p><b>classification</b>: <span title="Codes:{https://spor.ema.europa.eu/v1/lists/100000093533 100000095065}">amlodipine</span>, <span title="Codes:{http://www.whocc.no/atc C08CA01}">amlodipine</span></p><blockquote><p><b>name</b></p><p><b>productName</b>: Amlodipin Krka 5 mg Tablett</p><blockquote><p><b>part</b></p><p><b>part</b>: Amlodipin Krka</p><p><b>type</b>: <span title="Codes:{https://spor.ema.europa.eu/v1/lists/220000000000 220000000002}">Invented name part</span></p></blockquote><blockquote><p><b>part</b></p><p><b>part</b>: 5 mg</p><p><b>type</b>: <span title="Codes:{https://spor.ema.europa.eu/v1/lists/220000000000 220000000004}">Strength part</span></p></blockquote><blockquote><p><b>part</b></p><p><b>part</b>: Tablett</p><p><b>type</b>: <span title="Codes:{https://spor.ema.europa.eu/v1/lists/220000000000 220000000005}">Pharmaceutical dose form part</span></p></blockquote><h3>Usages</h3><table class="grid"><tr><td style="display: none">-</td><td><b>Country</b></td><td><b>Language</b></td></tr><tr><td style="display: none">*</td><td><span title="Codes:{https://spor.ema.europa.eu/v1/lists/100000000002 100000000535}">Kingdom of Sweden</span></td><td><span title="Codes:{urn:ietf:bcp:47 sv}">Swedish</span></td></tr></table></blockquote></div>
        </text>
        <identifier>
          <system value="http://ema.europa.eu/fhir/mpId"/>
          <value value="SE-100002602-00023828"/>
        </identifier>
        <domain>
          <coding>
            <system value="https://spor.ema.europa.eu/v1/lists/100000000004"/>
            <code value="100000000012"/>
            <display value="Human use"/>
          </coding>
        </domain>
        <status>
          <coding>
            <system value="https://spor.ema.europa.eu/v1/lists/200000005003"/>
            <code value="200000005004"/>
            <display value="Current"/>
          </coding>
        </status>
        <combinedPharmaceuticalDoseForm>
          <coding>
            <system value="https://spor.ema.europa.eu/v1/lists/200000000004"/>
            <code value="100000073664"/>
            <display value="Tablet"/>
          </coding>
        </combinedPharmaceuticalDoseForm>
        <indication value="Hypertoni Kronisk, stabil angina pectoris Vasospastisk (Prinzmetals) angina"/>
        <legalStatusOfSupply>
          <coding>
            <system value="https://spor.ema.europa.eu/v1/lists/100000072051"/>
            <code value="100000072084"/>
            <display value="Medicinal product subject to medical prescription"/>
          </coding>
        </legalStatusOfSupply>
        <classification>
          <coding>
            <system value="https://spor.ema.europa.eu/v1/lists/100000093533"/>
            <code value="100000095065"/>
            <display value="amlodipine"/>
          </coding>
        </classification>
        <classification>
          <coding>
            <system value="http://www.whocc.no/atc"/>
            <code value="C08CA01"/>
            <display value="amlodipine"/>
          </coding>
        </classification>
        <name>
          <productName value="Amlodipin Krka 5 mg Tablett"/>
          <part>
            <part value="Amlodipin Krka"/>
            <type>
              <coding>
                <system value="https://spor.ema.europa.eu/v1/lists/220000000000"/>
                <code value="220000000002"/>
                <display value="Invented name part"/>
              </coding>
            </type>
          </part>
          <part>
            <part value="5 mg"/>
            <type>
              <coding>
                <system value="https://spor.ema.europa.eu/v1/lists/220000000000"/>
                <code value="220000000004"/>
                <display value="Strength part"/>
              </coding>
            </type>
          </part>
          <part>
            <part value="Tablett"/>
            <type>
              <coding>
                <system value="https://spor.ema.europa.eu/v1/lists/220000000000"/>
                <code value="220000000005"/>
                <display value="Pharmaceutical dose form part"/>
              </coding>
            </type>
          </part>
          <usage>
            <country>
              <coding>
                <system value="https://spor.ema.europa.eu/v1/lists/100000000002"/>
                <code value="100000000535"/>
                <display value="Kingdom of Sweden"/>
              </coding>
            </country>
            <language>
              <coding>
                <system value="urn:ietf:bcp:47"/>
                <code value="sv"/>
                <display value="Swedish"/>
              </coding>
            </language>
          </usage>
        </name>
      </MedicinalProductDefinition>
    </resource>
  </entry>
  <entry>
    <fullUrl value="https://hl7-eu.github.io/unicom-ig/branches/mpd-r4b/AdministrableProductDefinition/AMLkrka-5mg-Tablet-SE-IS-AdministrableProductDefinition"/>
    <resource>
      <AdministrableProductDefinition>
        <id value="AMLkrka-5mg-Tablet-SE-IS-AdministrableProductDefinition"/>
        <meta>
          <profile value="http://unicom-project.eu/fhir/StructureDefinition/PPLAdministrableProductDefinition"/>
        </meta>
        <text>
          <status value="generated"/><div xmlns="http://www.w3.org/1999/xhtml"><a name="AdministrableProductDefinition_AMLkrka-5mg-Tablet-SE-IS-AdministrableProductDefinition"> </a><p class="res-header-id"><b>Generated Narrative: AdministrableProductDefinition AMLkrka-5mg-Tablet-SE-IS-AdministrableProductDefinition</b></p><a name="AMLkrka-5mg-Tablet-SE-IS-AdministrableProductDefinition"> </a><a name="hcAMLkrka-5mg-Tablet-SE-IS-AdministrableProductDefinition"> </a><a name="AMLkrka-5mg-Tablet-SE-IS-AdministrableProductDefinition-en-US"> </a><p><b>status</b>: Active</p><p><b>formOf</b>: <a href="Bundle-AMLkrka-5mg-Tablet-SE-IS-MedicinalProductDefinition-BBDL.html#MedicinalProductDefinition_AMLkrka-5mg-Tablet-SE-IS-MedicinalProductDefinition">Bundle: type = collection</a></p><p><b>administrableDoseForm</b>: <span title="Codes:{https://spor.ema.europa.eu/v1/lists/200000000004 100000073664}">Tablet</span></p><p><b>unitOfPresentation</b>: <span title="Codes:{https://spor.ema.europa.eu/v1/lists/200000000014 200000002152}">Tablet</span></p><p><b>producedFrom</b>: <a href="Bundle-AMLkrka-5mg-Tablet-SE-IS-MedicinalProductDefinition-BBDL.html#ManufacturedItemDefinition_AMLkrka-5mg-Tablet-SE-IS-ManufacturedItemDefinition">Bundle: type = collection</a></p><h3>RouteOfAdministrations</h3><table class="grid"><tr><td style="display: none">-</td><td><b>Code</b></td></tr><tr><td style="display: none">*</td><td><span title="Codes:{https://spor.ema.europa.eu/v1/lists/100000073345 100000073619}">Oral use</span></td></tr></table></div>
        </text>
        <status value="active"/>
        <formOf>
          <reference value="MedicinalProductDefinition/AMLkrka-5mg-Tablet-SE-IS-MedicinalProductDefinition"/>
        </formOf>
        <administrableDoseForm>
          <coding>
            <system value="https://spor.ema.europa.eu/v1/lists/200000000004"/>
            <code value="100000073664"/>
            <display value="Tablet"/>
          </coding>
        </administrableDoseForm>
        <unitOfPresentation>
          <coding>
            <system value="https://spor.ema.europa.eu/v1/lists/200000000014"/>
            <code value="200000002152"/>
            <display value="Tablet"/>
          </coding>
        </unitOfPresentation>
        <producedFrom>
          <reference value="ManufacturedItemDefinition/AMLkrka-5mg-Tablet-SE-IS-ManufacturedItemDefinition"/>
        </producedFrom>
        <routeOfAdministration>
          <code>
            <coding>
              <system value="https://spor.ema.europa.eu/v1/lists/100000073345"/>
              <code value="100000073619"/>
              <display value="Oral use"/>
            </coding>
          </code>
        </routeOfAdministration>
      </AdministrableProductDefinition>
    </resource>
  </entry>
  <entry>
    <fullUrl value="https://hl7-eu.github.io/unicom-ig/branches/mpd-r4b/RegulatedAuthorization/AMLkrka-5mg-Tablet-SE-IS-RegulatedAuthorization"/>
    <resource>
      <RegulatedAuthorization>
        <id value="AMLkrka-5mg-Tablet-SE-IS-RegulatedAuthorization"/>
        <meta>
          <lastUpdated value="2022-10-08T10:50:51.625+00:00"/>
          <profile value="http://unicom-project.eu/fhir/StructureDefinition/PPLRegulatedAuthorization"/>
        </meta>
        <text>
          <status value="generated"/><div xmlns="http://www.w3.org/1999/xhtml"><a name="RegulatedAuthorization_AMLkrka-5mg-Tablet-SE-IS-RegulatedAuthorization"> </a><p class="res-header-id"><b>Generated Narrative: RegulatedAuthorization AMLkrka-5mg-Tablet-SE-IS-RegulatedAuthorization</b></p><a name="AMLkrka-5mg-Tablet-SE-IS-RegulatedAuthorization"> </a><a name="hcAMLkrka-5mg-Tablet-SE-IS-RegulatedAuthorization"> </a><a name="AMLkrka-5mg-Tablet-SE-IS-RegulatedAuthorization-en-US"> </a><div style="display: inline-block; background-color: #d9e0e7; padding: 6px; margin: 4px; border: 1px solid #8da1b4; border-radius: 5px; line-height: 60%"><p style="margin-bottom: 0px">Last updated: 2022-10-08 10:50:51+0000</p><p style="margin-bottom: 0px">Profile: <a href="StructureDefinition-PPLRegulatedAuthorization.html">PPL Marketing Authorisation profile</a></p></div><p><b>identifier</b>: 23828</p><p><b>subject</b>: <a href="Bundle-AMLkrka-5mg-Tablet-SE-IS-MedicinalProductDefinition-BBDL.html#MedicinalProductDefinition_AMLkrka-5mg-Tablet-SE-IS-MedicinalProductDefinition">Bundle: type = collection</a></p><p><b>type</b>: <span title="Codes:{https://spor.ema.europa.eu/v1/lists/220000000060 220000000061}">Marketing Authorisation</span></p><p><b>region</b>: <span title="Codes:{https://spor.ema.europa.eu/v1/lists/100000000002 100000000535}">Kingdom of Sweden</span></p><p><b>status</b>: <span title="Codes:{https://spor.ema.europa.eu/v1/lists/100000072049 100000072099}">Valid</span></p><p><b>statusDate</b>: 2006-12-15</p><p><b>holder</b>: <a href="Organization-LOC-100000551-KrkaSverige.html">Organization KRKA Sverige AB</a></p></div>
        </text>
        <identifier>
          <value value="23828"/>
        </identifier>
        <subject>
          <reference value="MedicinalProductDefinition/AMLkrka-5mg-Tablet-SE-IS-MedicinalProductDefinition"/>
        </subject>
        <type>
          <coding>
            <system value="https://spor.ema.europa.eu/v1/lists/220000000060"/>
            <code value="220000000061"/>
            <display value="Marketing Authorisation"/>
          </coding>
        </type>
        <region>
          <coding>
            <system value="https://spor.ema.europa.eu/v1/lists/100000000002"/>
            <code value="100000000535"/>
            <display value="Kingdom of Sweden"/>
          </coding>
        </region>
        <status>
          <coding>
            <system value="https://spor.ema.europa.eu/v1/lists/100000072049"/>
            <code value="100000072099"/>
            <display value="Valid"/>
          </coding>
        </status>
        <statusDate value="2006-12-15"/>
        <holder>
          <reference value="Organization/LOC-100000551-KrkaSverige"/>
        </holder>
      </RegulatedAuthorization>
    </resource>
  </entry>
  <entry>
    <fullUrl value="https://hl7-eu.github.io/unicom-ig/branches/mpd-r4b/Organization-LOC-100000551-KrkaSverige"/>
    <resource>
      <Organization>
        <id value="LOC-100000551-KrkaSverige"/>
        <meta>
          <profile value="http://unicom-project.eu/fhir/StructureDefinition/PPLOrganization"/>
        </meta>
        <text>
          <status value="generated"/><div xmlns="http://www.w3.org/1999/xhtml"><a name="Organization_LOC-100000551-KrkaSverige"> </a><p class="res-header-id"><b>Generated Narrative: Organization LOC-100000551-KrkaSverige</b></p><a name="LOC-100000551-KrkaSverige"> </a><a name="hcLOC-100000551-KrkaSverige"> </a><a name="LOC-100000551-KrkaSverige-en-US"> </a><p><b>identifier</b>: <code>https://spor.ema.europa.eu/v1/locations</code>/LOC-100000551</p><p><b>name</b>: KRKA Sverige AB</p></div>
        </text>
        <identifier>
          <system value="https://spor.ema.europa.eu/v1/locations"/>
          <value value="LOC-100000551"/>
        </identifier>
        <name value="KRKA Sverige AB"/>
      </Organization>
    </resource>
  </entry>
  <entry>
    <fullUrl value="https://hl7-eu.github.io/unicom-ig/branches/mpd-r4b/PackagedProductDefinition/AMLkrka-5mg-Tablet-SE-IS-PackagedProductDefinition01"/>
    <resource>
      <PackagedProductDefinition>
        <id value="AMLkrka-5mg-Tablet-SE-IS-PackagedProductDefinition01"/>
        <meta>
          <profile value="http://unicom-project.eu/fhir/StructureDefinition/PPLPackagedProductDefinition"/>
        </meta>
        <text>
          <status value="generated"/><div xmlns="http://www.w3.org/1999/xhtml"><a name="PackagedProductDefinition_AMLkrka-5mg-Tablet-SE-IS-PackagedProductDefinition01"> </a><p class="res-header-id"><b>Generated Narrative: PackagedProductDefinition AMLkrka-5mg-Tablet-SE-IS-PackagedProductDefinition01</b></p><a name="AMLkrka-5mg-Tablet-SE-IS-PackagedProductDefinition01"> </a><a name="hcAMLkrka-5mg-Tablet-SE-IS-PackagedProductDefinition01"> </a><a name="AMLkrka-5mg-Tablet-SE-IS-PackagedProductDefinition01-en-US"> </a><p><b>identifier</b>: <code>http://ema.europa.eu/example/pcid</code>/?ngen-9?</p><p><b>packageFor</b>: <a href="Bundle-AMLkrka-5mg-Tablet-SE-IS-MedicinalProductDefinition-BBDL.html#MedicinalProductDefinition_AMLkrka-5mg-Tablet-SE-IS-MedicinalProductDefinition">Bundle: type = collection</a></p><p><b>containedItemQuantity</b>: 100 Tablet<span style="background: LightGoldenRodYellow"> (Details: Unit of Presentation EMA  code200000002152 = 'Tablet')</span></p><p><b>description</b>: </p><div><p>Blister, 100 tabletter</p>
</div><h3>MarketingStatuses</h3><table class="grid"><tr><td style="display: none">-</td><td><b>Country</b></td><td><b>Status</b></td></tr><tr><td style="display: none">*</td><td><span title="Codes:{https://spor.ema.europa.eu/v1/lists/100000000002 100000000535}">Kingdom of Sweden</span></td><td><span title="Codes:{https://spor.ema.europa.eu/v1/lists/100000072052 100000072083}">Marketed</span></td></tr></table><blockquote><p><b>packaging</b></p><p><b>type</b>: <span title="Codes:{https://spor.ema.europa.eu/v1/lists/100000073346 100000073498}">Box</span></p><p><b>quantity</b>: 1</p><p><b>material</b>: <span title="Codes:{https://spor.ema.europa.eu/v1/lists/200000003199 200000003529}">Cardboard</span></p><blockquote><p><b>packaging</b></p></blockquote></blockquote></div>
        </text>
        <identifier>
          <system value="http://ema.europa.eu/example/pcid"/>
        </identifier>
        <packageFor>
          <reference value="MedicinalProductDefinition/AMLkrka-5mg-Tablet-SE-IS-MedicinalProductDefinition"/>
        </packageFor>
        <containedItemQuantity>
          <value value="100"/>
          <unit value="Tablet"/>
          <system value="https://spor.ema.europa.eu/v1/lists/200000000014"/>
          <code value="200000002152"/>
        </containedItemQuantity>
        <description value="Blister, 100 tabletter"/>
        <marketingStatus>
          <country>
            <coding>
              <system value="https://spor.ema.europa.eu/v1/lists/100000000002"/>
              <code value="100000000535"/>
              <display value="Kingdom of Sweden"/>
            </coding>
          </country>
          <status>
            <coding>
              <system value="https://spor.ema.europa.eu/v1/lists/100000072052"/>
              <code value="100000072083"/>
              <display value="Marketed"/>
            </coding>
          </status>
        </marketingStatus>
        <packaging>
          <type>
            <coding>
              <system value="https://spor.ema.europa.eu/v1/lists/100000073346"/>
              <code value="100000073498"/>
              <display value="Box"/>
            </coding>
          </type>
          <quantity value="1"/>
          <material>
            <coding>
              <system value="https://spor.ema.europa.eu/v1/lists/200000003199"/>
              <code value="200000003529"/>
              <display value="Cardboard"/>
            </coding>
          </material>
          <packaging>
            <type>
              <coding>
                <system value="https://spor.ema.europa.eu/v1/lists/100000073346"/>
                <code value="100000073496"/>
                <display value="Blister"/>
              </coding>
            </type>
            <quantity value="10"/>
            <material>
              <coding>
                <system value="https://spor.ema.europa.eu/v1/lists/200000003199"/>
                <code value="200000003210"/>
                <display value="Orientated PolyAmide"/>
              </coding>
            </material>
            <material>
              <coding>
                <system value="https://spor.ema.europa.eu/v1/lists/200000003199"/>
                <code value="200000003200"/>
                <display value="Aluminium"/>
              </coding>
            </material>
            <material>
              <coding>
                <system value="https://spor.ema.europa.eu/v1/lists/200000003199"/>
                <code value="200000003222"/>
                <display value="PolyVinyl Chloride"/>
              </coding>
            </material>
            <containedItem>
              <item>
                <reference>
                  <reference value="ManufacturedItemDefinition/AMLkrka-5mg-Tablet-SE-IS-ManufacturedItemDefinition"/>
                </reference>
              </item>
              <amount>
                <value value="10"/>
                <unit value="Tablet"/>
                <system value="https://spor.ema.europa.eu/v1/lists/200000000014"/>
                <code value="200000002152"/>
              </amount>
            </containedItem>
          </packaging>
        </packaging>
      </PackagedProductDefinition>
    </resource>
  </entry>
  <entry>
    <fullUrl value="https://hl7-eu.github.io/unicom-ig/branches/mpd-r4b/PackagedProductDefinition/AMLkrka-5mg-Tablet-SE-IS-PackagedProductDefinition02"/>
    <resource>
      <PackagedProductDefinition>
        <id value="AMLkrka-5mg-Tablet-SE-IS-PackagedProductDefinition02"/>
        <meta>
          <lastUpdated value="2022-10-08T10:50:51.691+00:00"/>
          <profile value="http://unicom-project.eu/fhir/StructureDefinition/PPLPackagedProductDefinition"/>
        </meta>
        <text>
          <status value="generated"/><div xmlns="http://www.w3.org/1999/xhtml"><a name="PackagedProductDefinition_AMLkrka-5mg-Tablet-SE-IS-PackagedProductDefinition02"> </a><p class="res-header-id"><b>Generated Narrative: PackagedProductDefinition AMLkrka-5mg-Tablet-SE-IS-PackagedProductDefinition02</b></p><a name="AMLkrka-5mg-Tablet-SE-IS-PackagedProductDefinition02"> </a><a name="hcAMLkrka-5mg-Tablet-SE-IS-PackagedProductDefinition02"> </a><a name="AMLkrka-5mg-Tablet-SE-IS-PackagedProductDefinition02-en-US"> </a><div style="display: inline-block; background-color: #d9e0e7; padding: 6px; margin: 4px; border: 1px solid #8da1b4; border-radius: 5px; line-height: 60%"><p style="margin-bottom: 0px">Last updated: 2022-10-08 10:50:51+0000</p><p style="margin-bottom: 0px">Profile: <a href="StructureDefinition-PPLPackagedProductDefinition.html">PPL Packaged Product profile</a></p></div><p><b>identifier</b>: <code>http://ema.europa.eu/example/pcid</code>/?ngen-9?</p><p><b>packageFor</b>: <a href="Bundle-AMLkrka-5mg-Tablet-SE-IS-MedicinalProductDefinition-BBDL.html#MedicinalProductDefinition_AMLkrka-5mg-Tablet-SE-IS-MedicinalProductDefinition">Bundle: type = collection</a></p><p><b>containedItemQuantity</b>: 30 Tablet<span style="background: LightGoldenRodYellow"> (Details: Unit of Presentation EMA  code200000002152 = 'Tablet')</span></p><p><b>description</b>: </p><div><p>Blister, 30 tabletter</p>
</div><h3>MarketingStatuses</h3><table class="grid"><tr><td style="display: none">-</td><td><b>Country</b></td><td><b>Status</b></td></tr><tr><td style="display: none">*</td><td><span title="Codes:{https://spor.ema.europa.eu/v1/lists/100000000002 100000000535}">Kingdom of Sweden</span></td><td><span title="Codes:{https://spor.ema.europa.eu/v1/lists/100000072052 100000072083}">Marketed</span></td></tr></table><blockquote><p><b>packaging</b></p><p><b>type</b>: <span title="Codes:{https://spor.ema.europa.eu/v1/lists/100000073346 100000073498}">Box</span></p><p><b>quantity</b>: 1</p><p><b>material</b>: <span title="Codes:{https://spor.ema.europa.eu/v1/lists/200000003199 200000003529}">Cardboard</span></p><blockquote><p><b>packaging</b></p></blockquote></blockquote></div>
        </text>
        <identifier>
          <system value="http://ema.europa.eu/example/pcid"/>
        </identifier>
        <packageFor>
          <reference value="MedicinalProductDefinition/AMLkrka-5mg-Tablet-SE-IS-MedicinalProductDefinition"/>
        </packageFor>
        <containedItemQuantity>
          <value value="30"/>
          <unit value="Tablet"/>
          <system value="https://spor.ema.europa.eu/v1/lists/200000000014"/>
          <code value="200000002152"/>
        </containedItemQuantity>
        <description value="Blister, 30 tabletter"/>
        <marketingStatus>
          <country>
            <coding>
              <system value="https://spor.ema.europa.eu/v1/lists/100000000002"/>
              <code value="100000000535"/>
              <display value="Kingdom of Sweden"/>
            </coding>
          </country>
          <status>
            <coding>
              <system value="https://spor.ema.europa.eu/v1/lists/100000072052"/>
              <code value="100000072083"/>
              <display value="Marketed"/>
            </coding>
          </status>
        </marketingStatus>
        <packaging>
          <type>
            <coding>
              <system value="https://spor.ema.europa.eu/v1/lists/100000073346"/>
              <code value="100000073498"/>
              <display value="Box"/>
            </coding>
          </type>
          <quantity value="1"/>
          <material>
            <coding>
              <system value="https://spor.ema.europa.eu/v1/lists/200000003199"/>
              <code value="200000003529"/>
              <display value="Cardboard"/>
            </coding>
          </material>
          <packaging>
            <type>
              <coding>
                <system value="https://spor.ema.europa.eu/v1/lists/100000073346"/>
                <code value="100000073496"/>
                <display value="Blister"/>
              </coding>
            </type>
            <quantity value="3"/>
            <material>
              <coding>
                <system value="https://spor.ema.europa.eu/v1/lists/200000003199"/>
                <code value="200000003210"/>
                <display value="Orientated PolyAmide"/>
              </coding>
            </material>
            <material>
              <coding>
                <system value="https://spor.ema.europa.eu/v1/lists/200000003199"/>
                <code value="200000003200"/>
                <display value="Aluminium"/>
              </coding>
            </material>
            <material>
              <coding>
                <system value="https://spor.ema.europa.eu/v1/lists/200000003199"/>
                <code value="200000003222"/>
                <display value="PolyVinyl Chloride"/>
              </coding>
            </material>
            <containedItem>
              <item>
                <reference>
                  <reference value="ManufacturedItemDefinition/AMLkrka-5mg-Tablet-SE-IS-ManufacturedItemDefinition"/>
                </reference>
              </item>
              <amount>
                <value value="10"/>
                <unit value="Tablet"/>
                <system value="https://spor.ema.europa.eu/v1/lists/200000000014"/>
                <code value="200000002152"/>
              </amount>
            </containedItem>
          </packaging>
        </packaging>
      </PackagedProductDefinition>
    </resource>
  </entry>
  <entry>
    <fullUrl value="https://hl7-eu.github.io/unicom-ig/branches/mpd-r4b/ManufacturedItemDefinition/AMLkrka-5mg-Tablet-SE-IS-ManufacturedItemDefinition"/>
    <resource>
      <ManufacturedItemDefinition>
        <id value="AMLkrka-5mg-Tablet-SE-IS-ManufacturedItemDefinition"/>
        <meta>
          <lastUpdated value="2022-10-08T10:50:51.705+00:00"/>
          <profile value="http://unicom-project.eu/fhir/StructureDefinition/PPLManufacturedItemDefinition"/>
        </meta>
        <text>
          <status value="generated"/><div xmlns="http://www.w3.org/1999/xhtml"><a name="ManufacturedItemDefinition_AMLkrka-5mg-Tablet-SE-IS-ManufacturedItemDefinition"> </a><p class="res-header-id"><b>Generated Narrative: ManufacturedItemDefinition AMLkrka-5mg-Tablet-SE-IS-ManufacturedItemDefinition</b></p><a name="AMLkrka-5mg-Tablet-SE-IS-ManufacturedItemDefinition"> </a><a name="hcAMLkrka-5mg-Tablet-SE-IS-ManufacturedItemDefinition"> </a><a name="AMLkrka-5mg-Tablet-SE-IS-ManufacturedItemDefinition-en-US"> </a><div style="display: inline-block; background-color: #d9e0e7; padding: 6px; margin: 4px; border: 1px solid #8da1b4; border-radius: 5px; line-height: 60%"><p style="margin-bottom: 0px">Last updated: 2022-10-08 10:50:51+0000</p><p style="margin-bottom: 0px">Profile: <a href="StructureDefinition-PPLManufacturedItemDefinition.html">PPL Manufactured Item profile</a></p></div><p><b>status</b>: Active</p><p><b>manufacturedDoseForm</b>: <span title="Codes:{https://spor.ema.europa.eu/v1/lists/200000000004 100000073664}">Tablet</span></p><p><b>unitOfPresentation</b>: <span title="Codes:{https://spor.ema.europa.eu/v1/lists/200000000014 200000002152}">Tablet</span></p></div>
        </text>
        <status value="active"/>
        <manufacturedDoseForm>
          <coding>
            <system value="https://spor.ema.europa.eu/v1/lists/200000000004"/>
            <code value="100000073664"/>
            <display value="Tablet"/>
          </coding>
        </manufacturedDoseForm>
        <unitOfPresentation>
          <coding>
            <system value="https://spor.ema.europa.eu/v1/lists/200000000014"/>
            <code value="200000002152"/>
            <display value="Tablet"/>
          </coding>
        </unitOfPresentation>
      </ManufacturedItemDefinition>
    </resource>
  </entry>
  <entry>
    <fullUrl value="https://hl7-eu.github.io/unicom-ig/branches/mpd-r4b/Ingredient/AMLkrka-5mg-Tablet-SE-IS-Ingredient"/>
    <resource>
      <Ingredient>
        <id value="AMLkrka-5mg-Tablet-SE-IS-Ingredient"/>
        <meta>
          <lastUpdated value="2022-10-08T10:50:51.717+00:00"/>
          <profile value="http://unicom-project.eu/fhir/StructureDefinition/PPLIngredient"/>
        </meta>
        <text>
          <status value="generated"/><div xmlns="http://www.w3.org/1999/xhtml"><a name="Ingredient_AMLkrka-5mg-Tablet-SE-IS-Ingredient"> </a><p class="res-header-id"><b>Generated Narrative: Ingredient AMLkrka-5mg-Tablet-SE-IS-Ingredient</b></p><a name="AMLkrka-5mg-Tablet-SE-IS-Ingredient"> </a><a name="hcAMLkrka-5mg-Tablet-SE-IS-Ingredient"> </a><a name="AMLkrka-5mg-Tablet-SE-IS-Ingredient-en-US"> </a><div style="display: inline-block; background-color: #d9e0e7; padding: 6px; margin: 4px; border: 1px solid #8da1b4; border-radius: 5px; line-height: 60%"><p style="margin-bottom: 0px">Last updated: 2022-10-08 10:50:51+0000</p><p style="margin-bottom: 0px">Profile: <a href="StructureDefinition-PPLIngredient.html">PPL Ingredient profile</a></p></div><p><b>status</b>: Active</p><p><b>for</b>: </p><ul><li><a href="Bundle-AMLkrka-5mg-Tablet-SE-IS-MedicinalProductDefinition-BBDL.html#MedicinalProductDefinition_AMLkrka-5mg-Tablet-SE-IS-MedicinalProductDefinition">Bundle: type = collection</a></li><li><a href="Bundle-AMLkrka-5mg-Tablet-SE-IS-MedicinalProductDefinition-BBDL.html#ManufacturedItemDefinition_AMLkrka-5mg-Tablet-SE-IS-ManufacturedItemDefinition">Bundle: type = collection</a></li><li><a href="Bundle-AMLkrka-5mg-Tablet-SE-IS-MedicinalProductDefinition-BBDL.html#AdministrableProductDefinition_AMLkrka-5mg-Tablet-SE-IS-AdministrableProductDefinition">Bundle: type = collection</a></li></ul><p><b>role</b>: <span title="Codes:{https://spor.ema.europa.eu/v1/lists/100000072050 100000072072}">Active</span></p><blockquote><p><b>substance</b></p><h3>Codes</h3><table class="grid"><tr><td style="display: none">-</td><td><b>Concept</b></td></tr><tr><td style="display: none">*</td><td><span title="Codes:{https://spor.ema.europa.eu/v2/SubstanceDefinition 100000090079}">Amlodipine besilate</span></td></tr></table><blockquote><p><b>strength</b></p><p><b>presentation</b>: 6.94 milligram(s)<span style="background: LightGoldenRodYellow"> (Details: Unit of Measurement EMA  code100000110655 = 'milligram(s)')</span>/1 unit(s)<span style="background: LightGoldenRodYellow"> (Details: Unit of Measurement EMA  code100000110756 = 'unit(s)')</span></p><blockquote><p><b>referenceStrength</b></p><h3>Substances</h3><table class="grid"><tr><td style="display: none">-</td><td><b>Concept</b></td></tr><tr><td style="display: none">*</td><td><span title="Codes:{https://spor.ema.europa.eu/v2/SubstanceDefinition 100000085259}">Amlodipine</span></td></tr></table><p><b>strength</b>: 5 milligram(s)<span style="background: LightGoldenRodYellow"> (Details: Unit of Measurement EMA  code100000110655 = 'milligram(s)')</span>/1 unit(s)<span style="background: LightGoldenRodYellow"> (Details: Unit of Measurement EMA  code100000110756 = 'unit(s)')</span></p></blockquote></blockquote></blockquote></div>
        </text>
        <status value="active"/>
        <for>
          <reference value="MedicinalProductDefinition/AMLkrka-5mg-Tablet-SE-IS-MedicinalProductDefinition"/>
        </for>
        <for>
          <reference value="ManufacturedItemDefinition/AMLkrka-5mg-Tablet-SE-IS-ManufacturedItemDefinition"/>
        </for>
        <for>
          <reference value="AdministrableProductDefinition/AMLkrka-5mg-Tablet-SE-IS-AdministrableProductDefinition"/>
        </for>
        <role>
          <coding>
            <system value="https://spor.ema.europa.eu/v1/lists/100000072050"/>
            <code value="100000072072"/>
            <display value="Active"/>
          </coding>
        </role>
        <substance>
          <code>
            <concept>
              <coding>
                <system value="https://spor.ema.europa.eu/v2/SubstanceDefinition"/>
                <code value="100000090079"/>
                <display value="Amlodipine besilate"/>
              </coding>
            </concept>
          </code>
          <strength>
            <presentationRatio>
              <numerator>
                <value value="6.94"/>
                <unit value="milligram(s)"/>
                <system value="https://spor.ema.europa.eu/v1/lists/100000110633"/>
                <code value="100000110655"/>
              </numerator>
              <denominator>
                <value value="1"/>
                <unit value="unit(s)"/>
                <system value="https://spor.ema.europa.eu/v1/lists/100000110633"/>
                <code value="100000110756"/>
              </denominator>
            </presentationRatio>
            <referenceStrength>
              <substance>
                <concept>
                  <coding>
                    <system value="https://spor.ema.europa.eu/v2/SubstanceDefinition"/>
                    <code value="100000085259"/>
                    <display value="Amlodipine"/>
                  </coding>
                </concept>
              </substance>
              <strengthRatio>
                <numerator>
                  <value value="5"/>
                  <unit value="milligram(s)"/>
                  <system value="https://spor.ema.europa.eu/v1/lists/100000110633"/>
                  <code value="100000110655"/>
                </numerator>
                <denominator>
                  <value value="1"/>
                  <unit value="unit(s)"/>
                  <system value="https://spor.ema.europa.eu/v1/lists/100000110633"/>
                  <code value="100000110756"/>
                </denominator>
              </strengthRatio>
            </referenceStrength>
          </strength>
        </substance>
      </Ingredient>
    </resource>
  </entry>
</Bundle>