<?xml version="1.0" encoding="UTF-8"?>

<Bundle xmlns="http://hl7.org/fhir">
  <id value="014-CanestenKombi-FI-FullProduct"/>
  <type value="collection"/>
  <entry>
    <fullUrl value="https://hl7-eu.github.io/unicom-ig/branches/mpd-r4b/MedicinalProductDefinition-CanestenKombi-FI-MPD"/>
    <resource>
      <MedicinalProductDefinition>
        <id value="CanestenKombi-FI-MPD"/>
        <meta>
          <profile value="http://unicom-project.eu/fhir/StructureDefinition/PPLMedicinalProductDefinition"/>
        </meta>
        <text>
          <status value="generated"/><div xmlns="http://www.w3.org/1999/xhtml"><a name="MedicinalProductDefinition_CanestenKombi-FI-MPD"> </a><p class="res-header-id"><b>Generated Narrative: MedicinalProductDefinition CanestenKombi-FI-MPD</b></p><a name="CanestenKombi-FI-MPD"> </a><a name="hcCanestenKombi-FI-MPD"> </a><a name="CanestenKombi-FI-MPD-en-US"> </a><p><b>identifier</b>: <code>http://ema.europa.eu/fhir/mpId</code>/FI-100004966-18300, <code>http://ema.europa.eu/fhir/pmsId</code>/FI00000003</p><p><b>domain</b>: <span title="Codes:{https://spor.ema.europa.eu/v1/lists/100000000004 100000000012}">Human use</span></p><p><b>status</b>: <span title="Codes:{https://spor.ema.europa.eu/v1/lists/200000005003 200000005004}">Current</span></p><p><b>combinedPharmaceuticalDoseForm</b>: <span title="Codes:{https://spor.ema.europa.eu/v1/lists/200000000008 100000173972}">Cream + pessary</span></p><p><b>legalStatusOfSupply</b>: <span title="Codes:{https://spor.ema.europa.eu/v1/lists/100000072051 100000072084}">Medicinal Product subject to medical prescription</span></p><p><b>classification</b>: <span title="Codes:{https://spor.ema.europa.eu/v1/lists/100000093533 100000095693}">clotrimazole</span>, <span title="Codes:{http://www.whocc.no/atc G01AF02}">clotrimazole</span></p><blockquote><p><b>name</b></p><p><b>productName</b>: Canesten® Kombi 500 mg emätinpuikko + 10 mg/g emulsiovoide</p><h3>Parts</h3><table class="grid"><tr><td style="display: none">-</td><td><b>Part</b></td><td><b>Type</b></td></tr><tr><td style="display: none">*</td><td>Canesten Kombi</td><td><span title="Codes:{https://spor.ema.europa.eu/v1/lists/220000000000 220000000002}">Invented name part</span></td></tr></table><h3>Usages</h3><table class="grid"><tr><td style="display: none">-</td><td><b>Country</b></td><td><b>Language</b></td></tr><tr><td style="display: none">*</td><td><span title="Codes:{https://spor.ema.europa.eu/v1/lists/100000000002 100000000394}">Republic of Finland</span></td><td><span title="Codes:{urn:ietf:bcp:47 fi}">Finnish</span></td></tr></table></blockquote></div>
        </text>
        <identifier>
          <system value="http://ema.europa.eu/fhir/mpId"/>
          <value value="FI-100004966-18300"/>
        </identifier>
        <identifier>
          <system value="http://ema.europa.eu/fhir/pmsId"/>
          <value value="FI00000003"/>
        </identifier>
        <domain>
          <coding>
            <system value="https://spor.ema.europa.eu/v1/lists/100000000004"/>
            <code value="100000000012"/>
            <display value="Human use"/>
          </coding>
        </domain>
        <status>
          <coding>
            <system value="https://spor.ema.europa.eu/v1/lists/200000005003"/>
            <code value="200000005004"/>
            <display value="Current"/>
          </coding>
        </status>
        <combinedPharmaceuticalDoseForm>
          <coding>
            <system value="https://spor.ema.europa.eu/v1/lists/200000000008"/>
            <code value="100000173972"/>
            <display value="Cream + pessary"/>
          </coding>
        </combinedPharmaceuticalDoseForm>
        <legalStatusOfSupply>
          <coding>
            <system value="https://spor.ema.europa.eu/v1/lists/100000072051"/>
            <code value="100000072084"/>
            <display value="Medicinal Product subject to medical prescription"/>
          </coding>
        </legalStatusOfSupply>
        <classification>
          <coding>
            <system value="https://spor.ema.europa.eu/v1/lists/100000093533"/>
            <code value="100000095693"/>
            <display value="clotrimazole"/>
          </coding>
        </classification>
        <classification>
          <coding>
            <system value="http://www.whocc.no/atc"/>
            <code value="G01AF02"/>
            <display value="clotrimazole"/>
          </coding>
        </classification>
        <name>
          <productName value="Canesten® Kombi 500 mg emätinpuikko + 10 mg/g emulsiovoide"/>
          <part>
            <part value="Canesten Kombi"/>
            <type>
              <coding>
                <system value="https://spor.ema.europa.eu/v1/lists/220000000000"/>
                <code value="220000000002"/>
                <display value="Invented name part"/>
              </coding>
            </type>
          </part>
          <usage>
            <country>
              <coding>
                <system value="https://spor.ema.europa.eu/v1/lists/100000000002"/>
                <code value="100000000394"/>
                <display value="Republic of Finland"/>
              </coding>
            </country>
            <language>
              <coding>
                <system value="urn:ietf:bcp:47"/>
                <code value="fi"/>
                <display value="Finnish"/>
              </coding>
            </language>
          </usage>
        </name>
      </MedicinalProductDefinition>
    </resource>
  </entry>
  <entry>
    <fullUrl value="https://hl7-eu.github.io/unicom-ig/branches/mpd-r4b/RegulatedAuthorization-CanestenKombi-FI-RA"/>
    <resource>
      <RegulatedAuthorization>
        <id value="CanestenKombi-FI-RA"/>
        <meta>
          <profile value="http://unicom-project.eu/fhir/StructureDefinition/PPLRegulatedAuthorization"/>
        </meta>
        <text>
          <status value="generated"/><div xmlns="http://www.w3.org/1999/xhtml"><a name="RegulatedAuthorization_CanestenKombi-FI-RA"> </a><p class="res-header-id"><b>Generated Narrative: RegulatedAuthorization CanestenKombi-FI-RA</b></p><a name="CanestenKombi-FI-RA"> </a><a name="hcCanestenKombi-FI-RA"> </a><a name="CanestenKombi-FI-RA-en-US"> </a><p><b>identifier</b>: 18300</p><p><b>subject</b>: <a href="Bundle-014-CanestenKombi-FI-FullProduct.html#MedicinalProductDefinition_CanestenKombi-FI-MPD">Bundle: type = collection</a></p><p><b>type</b>: <span title="Codes:{https://spor.ema.europa.eu/v1/lists/220000000060 220000000061}">Marketing Authorisation</span></p><p><b>region</b>: <span title="Codes:{https://spor.ema.europa.eu/v1/lists/100000000002 100000000394}">Republic of Finland</span></p><p><b>status</b>: <span title="Codes:{https://spor.ema.europa.eu/v1/lists/100000072049 200000017708}">Valid - Renewed/Varied</span></p><p><b>statusDate</b>: 2009-11-11</p><p><b>holder</b>: <a href="Bundle-014-CanestenKombi-FI-FullProduct.html#Organization_LOC-100004966-BayerOy">Bundle: type = collection</a></p></div>
        </text>
        <identifier>
          <value value="18300"/>
        </identifier>
        <subject>
          <reference value="MedicinalProductDefinition/CanestenKombi-FI-MPD"/>
        </subject>
        <type>
          <coding>
            <system value="https://spor.ema.europa.eu/v1/lists/220000000060"/>
            <code value="220000000061"/>
            <display value="Marketing Authorisation"/>
          </coding>
        </type>
        <region>
          <coding>
            <system value="https://spor.ema.europa.eu/v1/lists/100000000002"/>
            <code value="100000000394"/>
            <display value="Republic of Finland"/>
          </coding>
        </region>
        <status>
          <coding>
            <system value="https://spor.ema.europa.eu/v1/lists/100000072049"/>
            <code value="200000017708"/>
            <display value="Valid - Renewed/Varied"/>
          </coding>
        </status>
        <statusDate value="2009-11-11"/>
        <holder>
          <reference value="Organization/LOC-100004966-BayerOy"/>
        </holder>
      </RegulatedAuthorization>
    </resource>
  </entry>
  <entry>
    <fullUrl value="https://hl7-eu.github.io/unicom-ig/branches/mpd-r4b/Organization-LOC-100004966-BayerOy"/>
    <resource>
      <Organization>
        <id value="LOC-100004966-BayerOy"/>
        <meta>
          <profile value="http://unicom-project.eu/fhir/StructureDefinition/PPLOrganization"/>
        </meta>
        <text>
          <status value="generated"/><div xmlns="http://www.w3.org/1999/xhtml"><a name="Organization_LOC-100004966-BayerOy"> </a><p class="res-header-id"><b>Generated Narrative: Organization LOC-100004966-BayerOy</b></p><a name="LOC-100004966-BayerOy"> </a><a name="hcLOC-100004966-BayerOy"> </a><a name="LOC-100004966-BayerOy-en-US"> </a><p><b>identifier</b>: <code>https://spor.ema.europa.eu/v1/locations</code>/LOC-100004966, <code>https://spor.ema.europa.eu/v1/organisations</code>/ORG-100000155</p><p><b>name</b>: Bayer Oy</p></div>
        </text>
        <identifier>
          <system value="https://spor.ema.europa.eu/v1/locations"/>
          <value value="LOC-100004966"/>
        </identifier>
        <identifier>
          <system value="https://spor.ema.europa.eu/v1/organisations"/>
          <value value="ORG-100000155"/>
        </identifier>
        <name value="Bayer Oy"/>
      </Organization>
    </resource>
  </entry>
  <entry>
    <fullUrl value="https://hl7-eu.github.io/unicom-ig/branches/mpd-r4b/AdministrableProductDefinition-CanestenKombi-Cream-FI-APD"/>
    <resource>
      <AdministrableProductDefinition>
        <id value="CanestenKombi-Cream-FI-APD"/>
        <meta>
          <profile value="http://unicom-project.eu/fhir/StructureDefinition/PPLAdministrableProductDefinition"/>
        </meta>
        <text>
          <status value="generated"/><div xmlns="http://www.w3.org/1999/xhtml"><a name="AdministrableProductDefinition_CanestenKombi-Cream-FI-APD"> </a><p class="res-header-id"><b>Generated Narrative: AdministrableProductDefinition CanestenKombi-Cream-FI-APD</b></p><a name="CanestenKombi-Cream-FI-APD"> </a><a name="hcCanestenKombi-Cream-FI-APD"> </a><a name="CanestenKombi-Cream-FI-APD-en-US"> </a><p><b>status</b>: Active</p><p><b>formOf</b>: <a href="Bundle-014-CanestenKombi-FI-FullProduct.html#MedicinalProductDefinition_CanestenKombi-FI-MPD">Bundle: type = collection</a></p><p><b>administrableDoseForm</b>: <span title="Codes:{https://spor.ema.europa.eu/v1/lists/200000000004 100000073712}">Cream</span></p><p><b>unitOfPresentation</b>: <span title="Codes:{https://spor.ema.europa.eu/v1/lists/200000000014 200000002156}">Tube</span></p><p><b>producedFrom</b>: <a href="Bundle-014-CanestenKombi-FI-FullProduct.html#ManufacturedItemDefinition_CanestenKombi-Cream-FI-MID">Bundle: type = collection</a></p><h3>RouteOfAdministrations</h3><table class="grid"><tr><td style="display: none">-</td><td><b>Code</b></td></tr><tr><td style="display: none">*</td><td><span title="Codes:{https://spor.ema.europa.eu/v1/lists/100000073345 100000073566}">Cutaneous use</span></td></tr></table></div>
        </text>
        <status value="active"/>
        <formOf>
          <reference value="MedicinalProductDefinition/CanestenKombi-FI-MPD"/>
        </formOf>
        <administrableDoseForm>
          <coding>
            <system value="https://spor.ema.europa.eu/v1/lists/200000000004"/>
            <code value="100000073712"/>
            <display value="Cream"/>
          </coding>
        </administrableDoseForm>
        <unitOfPresentation>
          <coding>
            <system value="https://spor.ema.europa.eu/v1/lists/200000000014"/>
            <code value="200000002156"/>
            <display value="Tube"/>
          </coding>
        </unitOfPresentation>
        <producedFrom>
          <reference value="ManufacturedItemDefinition/CanestenKombi-Cream-FI-MID"/>
        </producedFrom>
        <routeOfAdministration>
          <code>
            <coding>
              <system value="https://spor.ema.europa.eu/v1/lists/100000073345"/>
              <code value="100000073566"/>
              <display value="Cutaneous use"/>
            </coding>
          </code>
        </routeOfAdministration>
      </AdministrableProductDefinition>
    </resource>
  </entry>
  <entry>
    <fullUrl value="https://hl7-eu.github.io/unicom-ig/branches/mpd-r4b/AdministrableProductDefinition-CanestenKombi-Pessary-FI-APD"/>
    <resource>
      <AdministrableProductDefinition>
        <id value="CanestenKombi-Pessary-FI-APD"/>
        <meta>
          <profile value="http://unicom-project.eu/fhir/StructureDefinition/PPLAdministrableProductDefinition"/>
        </meta>
        <text>
          <status value="generated"/><div xmlns="http://www.w3.org/1999/xhtml"><a name="AdministrableProductDefinition_CanestenKombi-Pessary-FI-APD"> </a><p class="res-header-id"><b>Generated Narrative: AdministrableProductDefinition CanestenKombi-Pessary-FI-APD</b></p><a name="CanestenKombi-Pessary-FI-APD"> </a><a name="hcCanestenKombi-Pessary-FI-APD"> </a><a name="CanestenKombi-Pessary-FI-APD-en-US"> </a><p><b>status</b>: Active</p><p><b>formOf</b>: <a href="Bundle-014-CanestenKombi-FI-FullProduct.html#MedicinalProductDefinition_CanestenKombi-FI-MPD">Bundle: type = collection</a></p><p><b>administrableDoseForm</b>: <span title="Codes:{https://spor.ema.europa.eu/v1/lists/200000000004 100000073815}">Pessary</span></p><p><b>unitOfPresentation</b>: <span title="Codes:{https://spor.ema.europa.eu/v1/lists/200000000014 200000002137}">Pessary</span></p><p><b>producedFrom</b>: <a href="Bundle-014-CanestenKombi-FI-FullProduct.html#ManufacturedItemDefinition_CanestenKombi-Pessary-FI-MID">Bundle: type = collection</a></p><h3>RouteOfAdministrations</h3><table class="grid"><tr><td style="display: none">-</td><td><b>Code</b></td></tr><tr><td style="display: none">*</td><td><span title="Codes:{https://spor.ema.europa.eu/v1/lists/100000073345 100000073639}">Vaginal use</span></td></tr></table></div>
        </text>
        <status value="active"/>
        <formOf>
          <reference value="MedicinalProductDefinition/CanestenKombi-FI-MPD"/>
        </formOf>
        <administrableDoseForm>
          <coding>
            <system value="https://spor.ema.europa.eu/v1/lists/200000000004"/>
            <code value="100000073815"/>
            <display value="Pessary"/>
          </coding>
        </administrableDoseForm>
        <unitOfPresentation>
          <coding>
            <system value="https://spor.ema.europa.eu/v1/lists/200000000014"/>
            <code value="200000002137"/>
            <display value="Pessary"/>
          </coding>
        </unitOfPresentation>
        <producedFrom>
          <reference value="ManufacturedItemDefinition/CanestenKombi-Pessary-FI-MID"/>
        </producedFrom>
        <routeOfAdministration>
          <code>
            <coding>
              <system value="https://spor.ema.europa.eu/v1/lists/100000073345"/>
              <code value="100000073639"/>
              <display value="Vaginal use"/>
            </coding>
          </code>
        </routeOfAdministration>
      </AdministrableProductDefinition>
    </resource>
  </entry>
  <entry>
    <fullUrl value="https://hl7-eu.github.io/unicom-ig/branches/mpd-r4b/ManufacturedItemDefinition-CanestenKombi-Cream-FI-MID"/>
    <resource>
      <ManufacturedItemDefinition>
        <id value="CanestenKombi-Cream-FI-MID"/>
        <meta>
          <profile value="http://unicom-project.eu/fhir/StructureDefinition/PPLManufacturedItemDefinition"/>
        </meta>
        <text>
          <status value="generated"/><div xmlns="http://www.w3.org/1999/xhtml"><a name="ManufacturedItemDefinition_CanestenKombi-Cream-FI-MID"> </a><p class="res-header-id"><b>Generated Narrative: ManufacturedItemDefinition CanestenKombi-Cream-FI-MID</b></p><a name="CanestenKombi-Cream-FI-MID"> </a><a name="hcCanestenKombi-Cream-FI-MID"> </a><a name="CanestenKombi-Cream-FI-MID-en-US"> </a><p><b>status</b>: Active</p><p><b>manufacturedDoseForm</b>: <span title="Codes:{https://spor.ema.europa.eu/v1/lists/200000000004 100000073712}">Cream</span></p><p><b>unitOfPresentation</b>: <span title="Codes:{https://spor.ema.europa.eu/v1/lists/200000000014 200000002156}">Tube</span></p></div>
        </text>
        <status value="active"/>
        <manufacturedDoseForm>
          <coding>
            <system value="https://spor.ema.europa.eu/v1/lists/200000000004"/>
            <code value="100000073712"/>
            <display value="Cream"/>
          </coding>
        </manufacturedDoseForm>
        <unitOfPresentation>
          <coding>
            <system value="https://spor.ema.europa.eu/v1/lists/200000000014"/>
            <code value="200000002156"/>
            <display value="Tube"/>
          </coding>
        </unitOfPresentation>
      </ManufacturedItemDefinition>
    </resource>
  </entry>
  <entry>
    <fullUrl value="https://hl7-eu.github.io/unicom-ig/branches/mpd-r4b/ManufacturedItemDefinition-CanestenKombi-Pessary-FI-MID"/>
    <resource>
      <ManufacturedItemDefinition>
        <id value="CanestenKombi-Pessary-FI-MID"/>
        <meta>
          <profile value="http://unicom-project.eu/fhir/StructureDefinition/PPLManufacturedItemDefinition"/>
        </meta>
        <text>
          <status value="generated"/><div xmlns="http://www.w3.org/1999/xhtml"><a name="ManufacturedItemDefinition_CanestenKombi-Pessary-FI-MID"> </a><p class="res-header-id"><b>Generated Narrative: ManufacturedItemDefinition CanestenKombi-Pessary-FI-MID</b></p><a name="CanestenKombi-Pessary-FI-MID"> </a><a name="hcCanestenKombi-Pessary-FI-MID"> </a><a name="CanestenKombi-Pessary-FI-MID-en-US"> </a><p><b>status</b>: Active</p><p><b>manufacturedDoseForm</b>: <span title="Codes:{https://spor.ema.europa.eu/v1/lists/200000000004 100000073815}">Pessary</span></p><p><b>unitOfPresentation</b>: <span title="Codes:{https://spor.ema.europa.eu/v1/lists/200000000014 200000002137}">Pessary</span></p></div>
        </text>
        <status value="active"/>
        <manufacturedDoseForm>
          <coding>
            <system value="https://spor.ema.europa.eu/v1/lists/200000000004"/>
            <code value="100000073815"/>
            <display value="Pessary"/>
          </coding>
        </manufacturedDoseForm>
        <unitOfPresentation>
          <coding>
            <system value="https://spor.ema.europa.eu/v1/lists/200000000014"/>
            <code value="200000002137"/>
            <display value="Pessary"/>
          </coding>
        </unitOfPresentation>
      </ManufacturedItemDefinition>
    </resource>
  </entry>
  <entry>
    <fullUrl value="https://hl7-eu.github.io/unicom-ig/branches/mpd-r4b/Ingredient-CanestenKombi-Cream-FI-I"/>
    <resource>
      <Ingredient>
        <id value="CanestenKombi-Cream-FI-I"/>
        <meta>
          <profile value="http://unicom-project.eu/fhir/StructureDefinition/PPLIngredient"/>
        </meta>
        <text>
          <status value="generated"/><div xmlns="http://www.w3.org/1999/xhtml"><a name="Ingredient_CanestenKombi-Cream-FI-I"> </a><p class="res-header-id"><b>Generated Narrative: Ingredient CanestenKombi-Cream-FI-I</b></p><a name="CanestenKombi-Cream-FI-I"> </a><a name="hcCanestenKombi-Cream-FI-I"> </a><a name="CanestenKombi-Cream-FI-I-en-US"> </a><p><b>status</b>: Active</p><p><b>for</b>: </p><ul><li><a href="Bundle-014-CanestenKombi-FI-FullProduct.html#MedicinalProductDefinition_CanestenKombi-FI-MPD">Bundle: type = collection</a></li><li><a href="Bundle-014-CanestenKombi-FI-FullProduct.html#ManufacturedItemDefinition_CanestenKombi-Cream-FI-MID">Bundle: type = collection</a></li><li><a href="Bundle-014-CanestenKombi-FI-FullProduct.html#AdministrableProductDefinition_CanestenKombi-Cream-FI-APD">Bundle: type = collection</a></li></ul><p><b>role</b>: <span title="Codes:{https://spor.ema.europa.eu/v1/lists/100000072050 100000072072}">Active</span></p><blockquote><p><b>substance</b></p><h3>Codes</h3><table class="grid"><tr><td style="display: none">-</td><td><b>Concept</b></td></tr><tr><td style="display: none">*</td><td><span title="Codes:{https://spor.ema.europa.eu/v2/SubstanceDefinition 100000092074}">CLOTRIMAZOLE</span></td></tr></table><h3>Strengths</h3><table class="grid"><tr><td style="display: none">-</td><td><b>Concentration[x]</b></td></tr><tr><td style="display: none">*</td><td>10 milligram(s)<span style="background: LightGoldenRodYellow"> (Details: Unit of Measurement EMA  code100000110655 = 'milligram(s)')</span>/1 gram(s)<span style="background: LightGoldenRodYellow"> (Details: Unit of Measurement EMA  code100000110654 = 'gram(s)')</span></td></tr></table></blockquote></div>
        </text>
        <status value="active"/>
        <for>
          <reference value="MedicinalProductDefinition/CanestenKombi-FI-MPD"/>
        </for>
        <for>
          <reference value="ManufacturedItemDefinition/CanestenKombi-Cream-FI-MID"/>
        </for>
        <for>
          <reference value="AdministrableProductDefinition/CanestenKombi-Cream-FI-APD"/>
        </for>
        <role>
          <coding>
            <system value="https://spor.ema.europa.eu/v1/lists/100000072050"/>
            <code value="100000072072"/>
            <display value="Active"/>
          </coding>
        </role>
        <substance>
          <code>
            <concept>
              <coding>
                <system value="https://spor.ema.europa.eu/v2/SubstanceDefinition"/>
                <code value="100000092074"/>
                <display value="CLOTRIMAZOLE"/>
              </coding>
            </concept>
          </code>
          <strength>
            <concentrationRatio>
              <numerator>
                <value value="10"/>
                <unit value="milligram(s)"/>
                <system value="https://spor.ema.europa.eu/v1/lists/100000110633"/>
                <code value="100000110655"/>
              </numerator>
              <denominator>
                <value value="1"/>
                <unit value="gram(s)"/>
                <system value="https://spor.ema.europa.eu/v1/lists/100000110633"/>
                <code value="100000110654"/>
              </denominator>
            </concentrationRatio>
          </strength>
        </substance>
      </Ingredient>
    </resource>
  </entry>
  <entry>
    <fullUrl value="https://hl7-eu.github.io/unicom-ig/branches/mpd-r4b/Ingredient-CanestenKombi-Pessary-FI-I"/>
    <resource>
      <Ingredient>
        <id value="CanestenKombi-Pessary-FI-I"/>
        <meta>
          <profile value="http://unicom-project.eu/fhir/StructureDefinition/PPLIngredient"/>
        </meta>
        <text>
          <status value="generated"/><div xmlns="http://www.w3.org/1999/xhtml"><a name="Ingredient_CanestenKombi-Pessary-FI-I"> </a><p class="res-header-id"><b>Generated Narrative: Ingredient CanestenKombi-Pessary-FI-I</b></p><a name="CanestenKombi-Pessary-FI-I"> </a><a name="hcCanestenKombi-Pessary-FI-I"> </a><a name="CanestenKombi-Pessary-FI-I-en-US"> </a><p><b>status</b>: Active</p><p><b>for</b>: </p><ul><li><a href="Bundle-014-CanestenKombi-FI-FullProduct.html#MedicinalProductDefinition_CanestenKombi-FI-MPD">Bundle: type = collection</a></li><li><a href="Bundle-014-CanestenKombi-FI-FullProduct.html#ManufacturedItemDefinition_CanestenKombi-Pessary-FI-MID">Bundle: type = collection</a></li><li><a href="Bundle-014-CanestenKombi-FI-FullProduct.html#AdministrableProductDefinition_CanestenKombi-Pessary-FI-APD">Bundle: type = collection</a></li></ul><p><b>role</b>: <span title="Codes:{https://spor.ema.europa.eu/v1/lists/100000072050 100000072072}">Active</span></p><blockquote><p><b>substance</b></p><h3>Codes</h3><table class="grid"><tr><td style="display: none">-</td><td><b>Concept</b></td></tr><tr><td style="display: none">*</td><td><span title="Codes:{https://spor.ema.europa.eu/v2/SubstanceDefinition 100000092074}">CLOTRIMAZOLE</span></td></tr></table><h3>Strengths</h3><table class="grid"><tr><td style="display: none">-</td><td><b>Presentation[x]</b></td></tr><tr><td style="display: none">*</td><td>500 milligram(s)<span style="background: LightGoldenRodYellow"> (Details: Unit of Measurement EMA  code100000110655 = 'milligram(s)')</span>/1 Pessary<span style="background: LightGoldenRodYellow"> (Details: Unit of Presentation EMA  code200000002137 = 'Pessary')</span></td></tr></table></blockquote></div>
        </text>
        <status value="active"/>
        <for>
          <reference value="MedicinalProductDefinition/CanestenKombi-FI-MPD"/>
        </for>
        <for>
          <reference value="ManufacturedItemDefinition/CanestenKombi-Pessary-FI-MID"/>
        </for>
        <for>
          <reference value="AdministrableProductDefinition/CanestenKombi-Pessary-FI-APD"/>
        </for>
        <role>
          <coding>
            <system value="https://spor.ema.europa.eu/v1/lists/100000072050"/>
            <code value="100000072072"/>
            <display value="Active"/>
          </coding>
        </role>
        <substance>
          <code>
            <concept>
              <coding>
                <system value="https://spor.ema.europa.eu/v2/SubstanceDefinition"/>
                <code value="100000092074"/>
                <display value="CLOTRIMAZOLE"/>
              </coding>
            </concept>
          </code>
          <strength>
            <presentationRatio>
              <numerator>
                <value value="500"/>
                <unit value="milligram(s)"/>
                <system value="https://spor.ema.europa.eu/v1/lists/100000110633"/>
                <code value="100000110655"/>
              </numerator>
              <denominator>
                <value value="1"/>
                <unit value="Pessary"/>
                <system value="https://spor.ema.europa.eu/v1/lists/200000000014"/>
                <code value="200000002137"/>
              </denominator>
            </presentationRatio>
          </strength>
        </substance>
      </Ingredient>
    </resource>
  </entry>
  <entry>
    <fullUrl value="https://hl7-eu.github.io/unicom-ig/branches/mpd-r4b/PackagedProductDefinition-CanestenKombi-FI-PPD-541276"/>
    <resource>
      <PackagedProductDefinition>
        <id value="CanestenKombi-FI-PPD-541276"/>
        <meta>
          <profile value="http://unicom-project.eu/fhir/StructureDefinition/PPLPackagedProductDefinition"/>
        </meta>
        <text>
          <status value="generated"/><div xmlns="http://www.w3.org/1999/xhtml"><a name="PackagedProductDefinition_CanestenKombi-FI-PPD-541276"> </a><p class="res-header-id"><b>Generated Narrative: PackagedProductDefinition CanestenKombi-FI-PPD-541276</b></p><a name="CanestenKombi-FI-PPD-541276"> </a><a name="hcCanestenKombi-FI-PPD-541276"> </a><a name="CanestenKombi-FI-PPD-541276-en-US"> </a><p><b>identifier</b>: <code>http://ema.europa.eu/example/pcid</code>/FI-100004966-18300-541276</p><p><b>packageFor</b>: <a href="Bundle-014-CanestenKombi-FI-FullProduct.html#MedicinalProductDefinition_CanestenKombi-FI-MPD">Bundle: type = collection</a></p><p><b>containedItemQuantity</b>: 1 Pessary<span style="background: LightGoldenRodYellow"> (Details: Unit of Presentation EMA  code200000002137 = 'Pessary')</span>, 1 Tube<span style="background: LightGoldenRodYellow"> (Details: Unit of Presentation EMA  code200000002156 = 'Tube')</span></p><p><b>description</b>: </p><div><p>Yksi emätinpuikko läpipainopakkauksessa. Läpipainopakkauksen alaosa on pehmeää
alumiini/polyamidi/polyvinyylikloridi -foliota ja kansi kovaa alumiinifoliota. Kansiosa on
kuumasaumattu alaosaan. Pakkauksessa on polyetyleenistä valmistettu asetin. 20 g emulsiovoidetta
alumiiniputkessa</p>
</div><h3>MarketingStatuses</h3><table class="grid"><tr><td style="display: none">-</td><td><b>Country</b></td><td><b>Status</b></td></tr><tr><td style="display: none">*</td><td><span title="Codes:{https://spor.ema.europa.eu/v1/lists/100000000002 100000000394}">Republic of Finland</span></td><td><span title="Codes:{https://spor.ema.europa.eu/v1/lists/100000072052 100000072083}">Marketed</span></td></tr></table><blockquote><p><b>packaging</b></p><p><b>type</b>: <span title="Codes:{https://spor.ema.europa.eu/v1/lists/100000073346 100000073498}">Box</span></p><p><b>quantity</b>: 1</p><p><b>material</b>: <span title="Codes:{https://spor.ema.europa.eu/v1/lists/200000003199 200000003529}">Cardboard</span></p><blockquote><p><b>containedItem</b></p><h3>Items</h3><table class="grid"><tr><td style="display: none">-</td><td><b>Concept</b></td></tr><tr><td style="display: none">*</td><td><span title="Codes:{https://spor.ema.europa.eu/v1/lists/100000073346 100000073491}">Applicator</span></td></tr></table></blockquote><blockquote><p><b>packaging</b></p></blockquote><blockquote><p><b>packaging</b></p></blockquote></blockquote></div>
        </text>
        <identifier>
          <system value="http://ema.europa.eu/example/pcid"/>
          <value value="FI-100004966-18300-541276"/>
        </identifier>
        <packageFor>
          <reference value="MedicinalProductDefinition/CanestenKombi-FI-MPD"/>
        </packageFor>
        <containedItemQuantity>
          <value value="1"/>
          <unit value="Pessary"/>
          <system value="https://spor.ema.europa.eu/v1/lists/200000000014"/>
          <code value="200000002137"/>
        </containedItemQuantity>
        <containedItemQuantity>
          <value value="1"/>
          <unit value="Tube"/>
          <system value="https://spor.ema.europa.eu/v1/lists/200000000014"/>
          <code value="200000002156"/>
        </containedItemQuantity>
        <description value="Yksi emätinpuikko läpipainopakkauksessa. Läpipainopakkauksen alaosa on pehmeää &#xA;alumiini/polyamidi/polyvinyylikloridi -foliota ja kansi kovaa alumiinifoliota. Kansiosa on &#xA;kuumasaumattu alaosaan. Pakkauksessa on polyetyleenistä valmistettu asetin. 20 g emulsiovoidetta &#xA;alumiiniputkessa"/>
        <marketingStatus>
          <country>
            <coding>
              <system value="https://spor.ema.europa.eu/v1/lists/100000000002"/>
              <code value="100000000394"/>
              <display value="Republic of Finland"/>
            </coding>
          </country>
          <status>
            <coding>
              <system value="https://spor.ema.europa.eu/v1/lists/100000072052"/>
              <code value="100000072083"/>
              <display value="Marketed"/>
            </coding>
          </status>
        </marketingStatus>
        <packaging>
          <type>
            <coding>
              <system value="https://spor.ema.europa.eu/v1/lists/100000073346"/>
              <code value="100000073498"/>
              <display value="Box"/>
            </coding>
          </type>
          <quantity value="1"/>
          <material>
            <coding>
              <system value="https://spor.ema.europa.eu/v1/lists/200000003199"/>
              <code value="200000003529"/>
              <display value="Cardboard"/>
            </coding>
          </material>
          <containedItem>
            <item>
              <concept>
                <coding>
                  <system value="https://spor.ema.europa.eu/v1/lists/100000073346"/>
                  <code value="100000073491"/>
                  <display value="Applicator"/>
                </coding>
              </concept>
            </item>
          </containedItem>
          <packaging>
            <type>
              <coding>
                <system value="https://spor.ema.europa.eu/v1/lists/100000073346"/>
                <code value="100000073496"/>
                <display value="Blister"/>
              </coding>
            </type>
            <quantity value="1"/>
            <containedItem>
              <item>
                <reference>
                  <reference value="ManufacturedItemDefinition/CanestenKombi-Pessary-FI-MID"/>
                </reference>
              </item>
              <amount>
                <value value="1"/>
              </amount>
            </containedItem>
          </packaging>
          <packaging>
            <type>
              <coding>
                <system value="https://spor.ema.europa.eu/v1/lists/100000073346"/>
                <code value="100000073561"/>
                <display value="Tube"/>
              </coding>
            </type>
            <quantity value="1"/>
            <material>
              <coding>
                <system value="https://spor.ema.europa.eu/v1/lists/200000003199"/>
                <code value="200000003200"/>
                <display value="Aluminium"/>
              </coding>
            </material>
            <containedItem>
              <item>
                <reference>
                  <reference value="ManufacturedItemDefinition/CanestenKombi-Cream-FI-MID"/>
                </reference>
              </item>
              <amount>
                <value value="20"/>
                <unit value="gram(s)"/>
                <system value="https://spor.ema.europa.eu/v1/lists/100000110633"/>
                <code value="100000110654"/>
              </amount>
            </containedItem>
          </packaging>
        </packaging>
      </PackagedProductDefinition>
    </resource>
  </entry>
</Bundle>