{
  "resourceType" : "Bundle",
  "id" : "AMLbluefish-10mg-Tablet-SE-IS-MedicinalProductDefinition-BBDL",
  "type" : "transaction",
  "entry" : [{
    "fullUrl" : "https://hl7-eu.github.io/unicom-ig/branches/mpd-r4b/MedicinalProductDefinition/AMLbluefish-10mg-Tablet-SE-IS-MedicinalProductDefinition",
    "resource" : {
      "resourceType" : "MedicinalProductDefinition",
      "id" : "AMLbluefish-10mg-Tablet-SE-IS-MedicinalProductDefinition",
      "meta" : {
        "profile" : ["http://unicom-project.eu/fhir/StructureDefinition/PPLMedicinalProductDefinition"]
      },
      "text" : {
        "status" : "generated",
        "div" : "<div xmlns=\"http://www.w3.org/1999/xhtml\"><p><b>Generated Narrative: MedicinalProductDefinition</b><a name=\"AMLbluefish-10mg-Tablet-SE-IS-MedicinalProductDefinition\"> </a></p><div style=\"display: inline-block; background-color: #d9e0e7; padding: 6px; margin: 4px; border: 1px solid #8da1b4; border-radius: 5px; line-height: 60%\"><p style=\"margin-bottom: 0px\">Resource MedicinalProductDefinition &quot;AMLbluefish-10mg-Tablet-SE-IS-MedicinalProductDefinition&quot; </p><p style=\"margin-bottom: 0px\">Profile: <a href=\"StructureDefinition-PPLMedicinalProductDefinition.html\">PPL Medicinal Product profile</a></p></div><p><b>identifier</b>: id: SE-100002566-00023988</p><p><b>domain</b>: Human use <span style=\"background: LightGoldenRodYellow; margin: 4px; border: 1px solid khaki\"> (<a href=\"CodeSystem-domain-ema-cs.html\">Domain EMA</a>#100000000012)</span></p><p><b>status</b>: Current <span style=\"background: LightGoldenRodYellow; margin: 4px; border: 1px solid khaki\"> (<a href=\"CodeSystem-recordStatus-ema-cs.html\">Record Status EMA SPOR</a>#200000005004)</span></p><p><b>combinedPharmaceuticalDoseForm</b>: Tablet <span style=\"background: LightGoldenRodYellow; margin: 4px; border: 1px solid khaki\"> (<a href=\"CodeSystem-pharmaceutical-dose-form-ema-cs.html\">Pharmaceutical Dose Form EMA</a>#100000073664)</span></p><p><b>indication</b>: Hypertoni.  Kronisk stabil angina pectoris. Vasospastisk (Prinzmetals) angina</p><p><b>legalStatusOfSupply</b>: Medicinal product subject to medical prescription <span style=\"background: LightGoldenRodYellow; margin: 4px; border: 1px solid khaki\"> (<a href=\"CodeSystem-legal-status-for-the-supply-ema-cs.html\">Legal Status for the Supply EMA</a>#100000072084)</span></p><p><b>classification</b>: amlodipine <span style=\"background: LightGoldenRodYellow; margin: 4px; border: 1px solid khaki\"> (<a href=\"CodeSystem-ATC-Human-EMA.html\">ATC Human EMA</a>#100000095065)</span>, amlodipine <span style=\"background: LightGoldenRodYellow; margin: 4px; border: 1px solid khaki\"> (<a href=\"http://terminology.hl7.org/5.0.0/CodeSystem-v3-WC.html\">WHO ATC</a>#C08CA01)</span></p><blockquote><p><b>name</b></p><p><b>productName</b>: Amlodipin Bluefish 10 mg Tablett</p><blockquote><p><b>part</b></p><p><b>part</b>: Amlodipin Bluefish</p><p><b>type</b>: Invented name part <span style=\"background: LightGoldenRodYellow; margin: 4px; border: 1px solid khaki\"> (220000000000#220000000002)</span></p></blockquote><blockquote><p><b>part</b></p><p><b>part</b>: 10 mg</p><p><b>type</b>: Strength part <span style=\"background: LightGoldenRodYellow; margin: 4px; border: 1px solid khaki\"> (220000000000#220000000004)</span></p></blockquote><blockquote><p><b>part</b></p><p><b>part</b>: Tablett</p><p><b>type</b>: Pharmaceutical dose form part <span style=\"background: LightGoldenRodYellow; margin: 4px; border: 1px solid khaki\"> (220000000000#220000000005)</span></p></blockquote><h3>Usages</h3><table class=\"grid\"><tr><td>-</td><td><b>Country</b></td><td><b>Language</b></td></tr><tr><td>*</td><td>Kingdom of Sweden <span style=\"background: LightGoldenRodYellow; margin: 4px; border: 1px solid khaki\"> (<a href=\"CodeSystem-country-ema-cs.html\">Country EMA</a>#100000000535)</span></td><td>Swedish <span style=\"background: LightGoldenRodYellow; margin: 4px; border: 1px solid khaki\"> (<a href=\"CodeSystem-language-ema-cs.html\">Language EMA</a>#100000072288)</span></td></tr></table></blockquote></div>"
      },
      "identifier" : [{
        "system" : "http://ema.europa.eu/fhir/mpId",
        "value" : "SE-100002566-00023988"
      }],
      "domain" : {
        "coding" : [{
          "system" : "https://spor.ema.europa.eu/v1/lists/100000000004",
          "code" : "100000000012",
          "display" : "Human use"
        }]
      },
      "status" : {
        "coding" : [{
          "system" : "https://spor.ema.europa.eu/v1/lists/200000005003",
          "code" : "200000005004",
          "display" : "Current"
        }]
      },
      "combinedPharmaceuticalDoseForm" : {
        "coding" : [{
          "system" : "https://spor.ema.europa.eu/v1/lists/200000000004",
          "code" : "100000073664",
          "display" : "Tablet"
        }]
      },
      "indication" : "Hypertoni.  Kronisk stabil angina pectoris. Vasospastisk (Prinzmetals) angina",
      "legalStatusOfSupply" : {
        "coding" : [{
          "system" : "https://spor.ema.europa.eu/v1/lists/100000072051",
          "code" : "100000072084",
          "display" : "Medicinal product subject to medical prescription"
        }]
      },
      "classification" : [{
        "coding" : [{
          "system" : "https://spor.ema.europa.eu/v1/lists/100000093533",
          "code" : "100000095065",
          "display" : "amlodipine"
        }]
      },
      {
        "coding" : [{
          "system" : "http://www.whocc.no/atc",
          "code" : "C08CA01",
          "display" : "amlodipine"
        }]
      }],
      "name" : [{
        "productName" : "Amlodipin Bluefish 10 mg Tablett",
        "part" : [{
          "part" : "Amlodipin Bluefish",
          "type" : {
            "coding" : [{
              "system" : "https://spor.ema.europa.eu/v1/lists/220000000000",
              "code" : "220000000002",
              "display" : "Invented name part"
            }]
          }
        },
        {
          "part" : "10 mg",
          "type" : {
            "coding" : [{
              "system" : "https://spor.ema.europa.eu/v1/lists/220000000000",
              "code" : "220000000004",
              "display" : "Strength part"
            }]
          }
        },
        {
          "part" : "Tablett",
          "type" : {
            "coding" : [{
              "system" : "https://spor.ema.europa.eu/v1/lists/220000000000",
              "code" : "220000000005",
              "display" : "Pharmaceutical dose form part"
            }]
          }
        }],
        "usage" : [{
          "country" : {
            "coding" : [{
              "system" : "https://spor.ema.europa.eu/v1/lists/100000000002",
              "code" : "100000000535",
              "display" : "Kingdom of Sweden"
            }]
          },
          "language" : {
            "coding" : [{
              "system" : "https://spor.ema.europa.eu/v1/lists/100000072057",
              "code" : "100000072288",
              "display" : "Swedish"
            }]
          }
        }]
      }]
    },
    "request" : {
      "method" : "PUT",
      "url" : "MedicinalProductDefinition/AMLbluefish-10mg-Tablet-SE-IS-MedicinalProductDefinition"
    }
  },
  {
    "fullUrl" : "https://hl7-eu.github.io/unicom-ig/branches/mpd-r4b/AdministrableProductDefinition/AMLbluefish-10mg-Tablet-SE-IS-AdministrableProductDefinition",
    "resource" : {
      "resourceType" : "AdministrableProductDefinition",
      "id" : "AMLbluefish-10mg-Tablet-SE-IS-AdministrableProductDefinition",
      "meta" : {
        "profile" : ["http://unicom-project.eu/fhir/StructureDefinition/PPLAdministrableProductDefinition"]
      },
      "text" : {
        "status" : "generated",
        "div" : "<div xmlns=\"http://www.w3.org/1999/xhtml\"><p><b>Generated Narrative: AdministrableProductDefinition</b><a name=\"AMLbluefish-10mg-Tablet-SE-IS-AdministrableProductDefinition\"> </a></p><div style=\"display: inline-block; background-color: #d9e0e7; padding: 6px; margin: 4px; border: 1px solid #8da1b4; border-radius: 5px; line-height: 60%\"><p style=\"margin-bottom: 0px\">Resource AdministrableProductDefinition &quot;AMLbluefish-10mg-Tablet-SE-IS-AdministrableProductDefinition&quot; </p><p style=\"margin-bottom: 0px\">Profile: <a href=\"StructureDefinition-PPLAdministrableProductDefinition.html\">PPL Administrable Product profile</a></p></div><p><b>status</b>: active</p><p><b>formOf</b>: <a href=\"#MedicinalProductDefinition_AMLbluefish-10mg-Tablet-SE-IS-MedicinalProductDefinition\">See above (MedicinalProductDefinition/AMLbluefish-10mg-Tablet-SE-IS-MedicinalProductDefinition)</a></p><p><b>administrableDoseForm</b>: Tablet <span style=\"background: LightGoldenRodYellow; margin: 4px; border: 1px solid khaki\"> (<a href=\"CodeSystem-pharmaceutical-dose-form-ema-cs.html\">Pharmaceutical Dose Form EMA</a>#100000073664)</span></p><p><b>unitOfPresentation</b>: Tablet <span style=\"background: LightGoldenRodYellow; margin: 4px; border: 1px solid khaki\"> (<a href=\"CodeSystem-unit-of-presentation-ema-cs.html\">Unit of Presentation EMA</a>#200000002152)</span></p><p><b>producedFrom</b>: <a href=\"#ManufacturedItemDefinition_AMLbluefish-10mg-Tablet-SE-IS-ManufacturedItemDefinition\">See above (ManufacturedItemDefinition/AMLbluefish-10mg-Tablet-SE-IS-ManufacturedItemDefinition)</a></p><h3>RouteOfAdministrations</h3><table class=\"grid\"><tr><td>-</td><td><b>Code</b></td></tr><tr><td>*</td><td>Oral use <span style=\"background: LightGoldenRodYellow; margin: 4px; border: 1px solid khaki\"> (<a href=\"CodeSystem-routes-and-methods-of-administration-ema-cs.html\">Routes and Methods of Administration EMA</a>#100000073619)</span></td></tr></table></div>"
      },
      "status" : "active",
      "formOf" : [{
        "reference" : "MedicinalProductDefinition/AMLbluefish-10mg-Tablet-SE-IS-MedicinalProductDefinition"
      }],
      "administrableDoseForm" : {
        "coding" : [{
          "system" : "https://spor.ema.europa.eu/v1/lists/200000000004",
          "code" : "100000073664",
          "display" : "Tablet"
        }]
      },
      "unitOfPresentation" : {
        "coding" : [{
          "system" : "https://spor.ema.europa.eu/v1/lists/200000000014",
          "code" : "200000002152",
          "display" : "Tablet"
        }]
      },
      "producedFrom" : [{
        "reference" : "ManufacturedItemDefinition/AMLbluefish-10mg-Tablet-SE-IS-ManufacturedItemDefinition"
      }],
      "routeOfAdministration" : [{
        "code" : {
          "coding" : [{
            "system" : "https://spor.ema.europa.eu/v1/lists/100000073345",
            "code" : "100000073619",
            "display" : "Oral use"
          }]
        }
      }]
    },
    "request" : {
      "method" : "PUT",
      "url" : "AdministrableProductDefinition/AMLbluefish-10mg-Tablet-SE-IS-AdministrableProductDefinition"
    }
  },
  {
    "fullUrl" : "https://hl7-eu.github.io/unicom-ig/branches/mpd-r4b/RegulatedAuthorization/AMLbluefish-10mg-Tablet-SE-IS-RegulatedAuthorization",
    "resource" : {
      "resourceType" : "RegulatedAuthorization",
      "id" : "AMLbluefish-10mg-Tablet-SE-IS-RegulatedAuthorization",
      "meta" : {
        "profile" : ["http://unicom-project.eu/fhir/StructureDefinition/PPLRegulatedAuthorization"]
      },
      "text" : {
        "status" : "generated",
        "div" : "<div xmlns=\"http://www.w3.org/1999/xhtml\"><p><b>Generated Narrative: RegulatedAuthorization</b><a name=\"AMLbluefish-10mg-Tablet-SE-IS-RegulatedAuthorization\"> </a></p><div style=\"display: inline-block; background-color: #d9e0e7; padding: 6px; margin: 4px; border: 1px solid #8da1b4; border-radius: 5px; line-height: 60%\"><p style=\"margin-bottom: 0px\">Resource RegulatedAuthorization &quot;AMLbluefish-10mg-Tablet-SE-IS-RegulatedAuthorization&quot; </p><p style=\"margin-bottom: 0px\">Profile: <a href=\"StructureDefinition-PPLRegulatedAuthorization.html\">PPL Marketing Authorisation profile</a></p></div><p><b>identifier</b>: id: 23988</p><p><b>subject</b>: <a href=\"#MedicinalProductDefinition_AMLbluefish-10mg-Tablet-SE-IS-MedicinalProductDefinition\">See above (MedicinalProductDefinition/AMLbluefish-10mg-Tablet-SE-IS-MedicinalProductDefinition)</a></p><p><b>type</b>: Marketing Authorisation <span style=\"background: LightGoldenRodYellow; margin: 4px; border: 1px solid khaki\"> (220000000060#220000000061)</span></p><p><b>region</b>: Kingdom of Sweden <span style=\"background: LightGoldenRodYellow; margin: 4px; border: 1px solid khaki\"> (<a href=\"CodeSystem-country-ema-cs.html\">Country EMA</a>#100000000535)</span></p><p><b>status</b>: Valid <span style=\"background: LightGoldenRodYellow; margin: 4px; border: 1px solid khaki\"> (<a href=\"CodeSystem-regulatoryStatus-ema-cs.html\">Regulatory Entitlement Status EMA SPOR</a>#100000072099)</span></p><p><b>statusDate</b>: 2007-10-26</p><p><b>holder</b>: <a href=\"#Organization_LOC-100001076-Bluefish\">See above (Organization/LOC-100001076-Bluefish)</a></p></div>"
      },
      "identifier" : [{
        "value" : "23988"
      }],
      "subject" : [{
        "reference" : "MedicinalProductDefinition/AMLbluefish-10mg-Tablet-SE-IS-MedicinalProductDefinition"
      }],
      "type" : {
        "coding" : [{
          "system" : "https://spor.ema.europa.eu/v1/lists/220000000060",
          "code" : "220000000061",
          "display" : "Marketing Authorisation"
        }]
      },
      "region" : [{
        "coding" : [{
          "system" : "https://spor.ema.europa.eu/v1/lists/100000000002",
          "code" : "100000000535",
          "display" : "Kingdom of Sweden"
        }]
      }],
      "status" : {
        "coding" : [{
          "system" : "https://spor.ema.europa.eu/v1/lists/100000072049",
          "code" : "100000072099",
          "display" : "Valid"
        }]
      },
      "statusDate" : "2007-10-26",
      "holder" : {
        "reference" : "Organization/LOC-100001076-Bluefish"
      }
    },
    "request" : {
      "method" : "PUT",
      "url" : "RegulatedAuthorization/AMLbluefish-10mg-Tablet-SE-IS-RegulatedAuthorization"
    }
  },
  {
    "fullUrl" : "https://hl7-eu.github.io/unicom-ig/branches/mpd-r4b/Organization/LOC-100001076-Bluefish",
    "resource" : {
      "resourceType" : "Organization",
      "id" : "LOC-100001076-Bluefish",
      "meta" : {
        "profile" : ["http://unicom-project.eu/fhir/StructureDefinition/PPLOrganization"]
      },
      "text" : {
        "status" : "generated",
        "div" : "<div xmlns=\"http://www.w3.org/1999/xhtml\"><p><b>Generated Narrative: Organization</b><a name=\"LOC-100001076-Bluefish\"> </a></p><div style=\"display: inline-block; background-color: #d9e0e7; padding: 6px; margin: 4px; border: 1px solid #8da1b4; border-radius: 5px; line-height: 60%\"><p style=\"margin-bottom: 0px\">Resource Organization &quot;LOC-100001076-Bluefish&quot; </p><p style=\"margin-bottom: 0px\">Profile: <a href=\"StructureDefinition-PPLOrganization.html\">PPL Organization</a></p></div><p><b>identifier</b>: id: LOC-100001076</p><p><b>name</b>: Bluefish Pharmaceuticals AB</p></div>"
      },
      "identifier" : [{
        "system" : "https://spor.ema.europa.eu/v1/locations",
        "value" : "LOC-100001076"
      }],
      "name" : "Bluefish Pharmaceuticals AB"
    },
    "request" : {
      "method" : "PUT",
      "url" : "Organization/LOC-100001076-Bluefish"
    }
  },
  {
    "fullUrl" : "https://hl7-eu.github.io/unicom-ig/branches/mpd-r4b/PackagedProductDefinition/AMLbluefish-10mg-Tablet-SE-IS-PackagedProductDefinition",
    "resource" : {
      "resourceType" : "PackagedProductDefinition",
      "id" : "AMLbluefish-10mg-Tablet-SE-IS-PackagedProductDefinition",
      "meta" : {
        "profile" : ["http://unicom-project.eu/fhir/StructureDefinition/PPLPackagedProductDefinition"]
      },
      "text" : {
        "status" : "generated",
        "div" : "<div xmlns=\"http://www.w3.org/1999/xhtml\"><p><b>Generated Narrative: PackagedProductDefinition</b><a name=\"AMLbluefish-10mg-Tablet-SE-IS-PackagedProductDefinition\"> </a></p><div style=\"display: inline-block; background-color: #d9e0e7; padding: 6px; margin: 4px; border: 1px solid #8da1b4; border-radius: 5px; line-height: 60%\"><p style=\"margin-bottom: 0px\">Resource PackagedProductDefinition &quot;AMLbluefish-10mg-Tablet-SE-IS-PackagedProductDefinition&quot; </p><p style=\"margin-bottom: 0px\">Profile: <a href=\"StructureDefinition-PPLPackagedProductDefinition.html\">PPL Packaged Product profile</a></p></div><p><b>identifier</b>: id: ?ngen-9?</p><p><b>packageFor</b>: <a href=\"#MedicinalProductDefinition_AMLbluefish-10mg-Tablet-SE-IS-MedicinalProductDefinition\">See above (MedicinalProductDefinition/AMLbluefish-10mg-Tablet-SE-IS-MedicinalProductDefinition)</a></p><p><b>containedItemQuantity</b>: 100 Tablet<span style=\"background: LightGoldenRodYellow\"> (Details: https://spor.ema.europa.eu/v1/lists/200000000014 code 200000002152 = 'Tablet')</span></p><p><b>description</b>: Blister, 100 tabletter</p><h3>MarketingStatuses</h3><table class=\"grid\"><tr><td>-</td><td><b>Country</b></td><td><b>Status</b></td></tr><tr><td>*</td><td>Kingdom of Sweden <span style=\"background: LightGoldenRodYellow; margin: 4px; border: 1px solid khaki\"> (<a href=\"CodeSystem-country-ema-cs.html\">Country EMA</a>#100000000535)</span></td><td>Marketed <span style=\"background: LightGoldenRodYellow; margin: 4px; border: 1px solid khaki\"> (<a href=\"CodeSystem-Marketing-Status-ema-cs.html\">Marketing Status EMA</a>#100000072083)</span></td></tr></table><blockquote><p><b>packaging</b></p><p><b>type</b>: Box <span style=\"background: LightGoldenRodYellow; margin: 4px; border: 1px solid khaki\"> (<a href=\"CodeSystem-packaging-ema-cs.html\">Packaging EMA SPOR</a>#100000073498)</span></p><p><b>quantity</b>: 1</p><p><b>material</b>: Cardboard <span style=\"background: LightGoldenRodYellow; margin: 4px; border: 1px solid khaki\"> (<a href=\"CodeSystem-material-ema-cs.html\">Material EMA</a>#200000003529)</span></p><blockquote><p><b>packaging</b></p><p><b>type</b>: Blister <span style=\"background: LightGoldenRodYellow; margin: 4px; border: 1px solid khaki\"> (<a href=\"CodeSystem-packaging-ema-cs.html\">Packaging EMA SPOR</a>#100000073496)</span></p><p><b>quantity</b>: 10</p><p><b>material</b>: PolyVinyl Chloride <span style=\"background: LightGoldenRodYellow; margin: 4px; border: 1px solid khaki\"> (<a href=\"CodeSystem-material-ema-cs.html\">Material EMA</a>#200000003222)</span>, PolyVinylidene Chloride <span style=\"background: LightGoldenRodYellow; margin: 4px; border: 1px solid khaki\"> (<a href=\"CodeSystem-material-ema-cs.html\">Material EMA</a>#200000003225)</span>, Aluminium <span style=\"background: LightGoldenRodYellow; margin: 4px; border: 1px solid khaki\"> (<a href=\"CodeSystem-material-ema-cs.html\">Material EMA</a>#200000003200)</span></p></blockquote></blockquote></div>"
      },
      "identifier" : [{
        "system" : "http://ema.europa.eu/example/pcid"
      }],
      "packageFor" : [{
        "reference" : "MedicinalProductDefinition/AMLbluefish-10mg-Tablet-SE-IS-MedicinalProductDefinition"
      }],
      "containedItemQuantity" : [{
        "value" : 100,
        "unit" : "Tablet",
        "system" : "https://spor.ema.europa.eu/v1/lists/200000000014",
        "code" : "200000002152"
      }],
      "description" : "Blister, 100 tabletter",
      "marketingStatus" : [{
        "country" : {
          "coding" : [{
            "system" : "https://spor.ema.europa.eu/v1/lists/100000000002",
            "code" : "100000000535",
            "display" : "Kingdom of Sweden"
          }]
        },
        "status" : {
          "coding" : [{
            "system" : "https://spor.ema.europa.eu/v1/lists/100000072052",
            "code" : "100000072083",
            "display" : "Marketed"
          }]
        }
      }],
      "packaging" : {
        "type" : {
          "coding" : [{
            "system" : "https://spor.ema.europa.eu/v1/lists/100000073346",
            "code" : "100000073498",
            "display" : "Box"
          }]
        },
        "quantity" : 1,
        "material" : [{
          "coding" : [{
            "system" : "https://spor.ema.europa.eu/v1/lists/200000003199",
            "code" : "200000003529",
            "display" : "Cardboard"
          }]
        }],
        "packaging" : [{
          "type" : {
            "coding" : [{
              "system" : "https://spor.ema.europa.eu/v1/lists/100000073346",
              "code" : "100000073496",
              "display" : "Blister"
            }]
          },
          "quantity" : 10,
          "material" : [{
            "coding" : [{
              "system" : "https://spor.ema.europa.eu/v1/lists/200000003199",
              "code" : "200000003222",
              "display" : "PolyVinyl Chloride"
            }]
          },
          {
            "coding" : [{
              "system" : "https://spor.ema.europa.eu/v1/lists/200000003199",
              "code" : "200000003225",
              "display" : "PolyVinylidene Chloride"
            }]
          },
          {
            "coding" : [{
              "system" : "https://spor.ema.europa.eu/v1/lists/200000003199",
              "code" : "200000003200",
              "display" : "Aluminium"
            }]
          }],
          "containedItem" : [{
            "item" : {
              "reference" : {
                "reference" : "ManufacturedItemDefinition/AMLbluefish-10mg-Tablet-SE-IS-ManufacturedItemDefinition"
              }
            },
            "amount" : {
              "value" : 10,
              "unit" : "Tablet",
              "system" : "https://spor.ema.europa.eu/v1/lists/200000000014",
              "code" : "200000002152"
            }
          }]
        }]
      }
    },
    "request" : {
      "method" : "PUT",
      "url" : "PackagedProductDefinition/AMLbluefish-10mg-Tablet-SE-IS-PackagedProductDefinition"
    }
  },
  {
    "fullUrl" : "https://hl7-eu.github.io/unicom-ig/branches/mpd-r4b/ManufacturedItemDefinition/AMLbluefish-10mg-Tablet-SE-IS-ManufacturedItemDefinition",
    "resource" : {
      "resourceType" : "ManufacturedItemDefinition",
      "id" : "AMLbluefish-10mg-Tablet-SE-IS-ManufacturedItemDefinition",
      "meta" : {
        "profile" : ["http://unicom-project.eu/fhir/StructureDefinition/PPLManufacturedItemDefinition"]
      },
      "text" : {
        "status" : "generated",
        "div" : "<div xmlns=\"http://www.w3.org/1999/xhtml\"><p><b>Generated Narrative: ManufacturedItemDefinition</b><a name=\"AMLbluefish-10mg-Tablet-SE-IS-ManufacturedItemDefinition\"> </a></p><div style=\"display: inline-block; background-color: #d9e0e7; padding: 6px; margin: 4px; border: 1px solid #8da1b4; border-radius: 5px; line-height: 60%\"><p style=\"margin-bottom: 0px\">Resource ManufacturedItemDefinition &quot;AMLbluefish-10mg-Tablet-SE-IS-ManufacturedItemDefinition&quot; </p><p style=\"margin-bottom: 0px\">Profile: <a href=\"StructureDefinition-PPLManufacturedItemDefinition.html\">PPL Manufactured Item profile</a></p></div><p><b>status</b>: active</p><p><b>manufacturedDoseForm</b>: Tablet <span style=\"background: LightGoldenRodYellow; margin: 4px; border: 1px solid khaki\"> (<a href=\"CodeSystem-pharmaceutical-dose-form-ema-cs.html\">Pharmaceutical Dose Form EMA</a>#100000073664)</span></p><p><b>unitOfPresentation</b>: Tablet <span style=\"background: LightGoldenRodYellow; margin: 4px; border: 1px solid khaki\"> (<a href=\"CodeSystem-unit-of-presentation-ema-cs.html\">Unit of Presentation EMA</a>#200000002152)</span></p></div>"
      },
      "status" : "active",
      "manufacturedDoseForm" : {
        "coding" : [{
          "system" : "https://spor.ema.europa.eu/v1/lists/200000000004",
          "code" : "100000073664",
          "display" : "Tablet"
        }]
      },
      "unitOfPresentation" : {
        "coding" : [{
          "system" : "https://spor.ema.europa.eu/v1/lists/200000000014",
          "code" : "200000002152",
          "display" : "Tablet"
        }]
      }
    },
    "request" : {
      "method" : "PUT",
      "url" : "ManufacturedItemDefinition/AMLbluefish-10mg-Tablet-SE-IS-ManufacturedItemDefinition"
    }
  },
  {
    "fullUrl" : "https://hl7-eu.github.io/unicom-ig/branches/mpd-r4b/Ingredient/AMLbluefish-10mg-Tablet-SE-IS-Ingredient",
    "resource" : {
      "resourceType" : "Ingredient",
      "id" : "AMLbluefish-10mg-Tablet-SE-IS-Ingredient",
      "meta" : {
        "profile" : ["http://unicom-project.eu/fhir/StructureDefinition/PPLIngredient"]
      },
      "text" : {
        "status" : "generated",
        "div" : "<div xmlns=\"http://www.w3.org/1999/xhtml\"><p><b>Generated Narrative: Ingredient</b><a name=\"AMLbluefish-10mg-Tablet-SE-IS-Ingredient\"> </a></p><div style=\"display: inline-block; background-color: #d9e0e7; padding: 6px; margin: 4px; border: 1px solid #8da1b4; border-radius: 5px; line-height: 60%\"><p style=\"margin-bottom: 0px\">Resource Ingredient &quot;AMLbluefish-10mg-Tablet-SE-IS-Ingredient&quot; </p><p style=\"margin-bottom: 0px\">Profile: <a href=\"StructureDefinition-PPLIngredient.html\">PPL Ingredient profile</a></p></div><p><b>status</b>: active</p><p><b>for</b>: </p><ul><li><a href=\"#MedicinalProductDefinition_AMLbluefish-10mg-Tablet-SE-IS-MedicinalProductDefinition\">See above (MedicinalProductDefinition/AMLbluefish-10mg-Tablet-SE-IS-MedicinalProductDefinition)</a></li><li><a href=\"#ManufacturedItemDefinition_AMLbluefish-10mg-Tablet-SE-IS-ManufacturedItemDefinition\">See above (ManufacturedItemDefinition/AMLbluefish-10mg-Tablet-SE-IS-ManufacturedItemDefinition)</a></li><li><a href=\"#AdministrableProductDefinition_AMLbluefish-10mg-Tablet-SE-IS-AdministrableProductDefinition\">See above (AdministrableProductDefinition/AMLbluefish-10mg-Tablet-SE-IS-AdministrableProductDefinition)</a></li></ul><p><b>role</b>: Active <span style=\"background: LightGoldenRodYellow; margin: 4px; border: 1px solid khaki\"> (100000072050#100000072072)</span></p><blockquote><p><b>substance</b></p><h3>Codes</h3><table class=\"grid\"><tr><td>-</td><td><b>Concept</b></td></tr><tr><td>*</td><td>Amlodipine besilate <span style=\"background: LightGoldenRodYellow; margin: 4px; border: 1px solid khaki\"> (<a href=\"CodeSystem-substance-sms-cs.html\">Substances EMA SPOR SMS</a>#100000090079)</span></td></tr></table><blockquote><p><b>strength</b></p><p><b>presentation</b>: 13.87 milligram(s)<span style=\"background: LightGoldenRodYellow\"> (Details: https://spor.ema.europa.eu/v1/lists/100000110633 code 100000110655 = 'milligram(s)')</span>/1 unit(s)<span style=\"background: LightGoldenRodYellow\"> (Details: https://spor.ema.europa.eu/v1/lists/100000110633 code 100000110756 = 'unit(s)')</span></p><blockquote><p><b>referenceStrength</b></p><h3>Substances</h3><table class=\"grid\"><tr><td>-</td><td><b>Concept</b></td></tr><tr><td>*</td><td>Amlodipine <span style=\"background: LightGoldenRodYellow; margin: 4px; border: 1px solid khaki\"> (<a href=\"CodeSystem-substance-sms-cs.html\">Substances EMA SPOR SMS</a>#100000085259)</span></td></tr></table><p><b>strength</b>: 10 milligram(s)<span style=\"background: LightGoldenRodYellow\"> (Details: https://spor.ema.europa.eu/v1/lists/100000110633 code 100000110655 = 'milligram(s)')</span>/1 unit(s)<span style=\"background: LightGoldenRodYellow\"> (Details: https://spor.ema.europa.eu/v1/lists/100000110633 code 100000110756 = 'unit(s)')</span></p></blockquote></blockquote></blockquote></div>"
      },
      "status" : "active",
      "for" : [{
        "reference" : "MedicinalProductDefinition/AMLbluefish-10mg-Tablet-SE-IS-MedicinalProductDefinition"
      },
      {
        "reference" : "ManufacturedItemDefinition/AMLbluefish-10mg-Tablet-SE-IS-ManufacturedItemDefinition"
      },
      {
        "reference" : "AdministrableProductDefinition/AMLbluefish-10mg-Tablet-SE-IS-AdministrableProductDefinition"
      }],
      "role" : {
        "coding" : [{
          "system" : "https://spor.ema.europa.eu/v1/lists/100000072050",
          "code" : "100000072072",
          "display" : "Active"
        }]
      },
      "substance" : {
        "code" : {
          "concept" : {
            "coding" : [{
              "system" : "https://spor.ema.europa.eu/v2/SubstanceDefinition",
              "code" : "100000090079",
              "display" : "Amlodipine besilate"
            }]
          }
        },
        "strength" : [{
          "presentationRatio" : {
            "numerator" : {
              "value" : 13.87,
              "unit" : "milligram(s)",
              "system" : "https://spor.ema.europa.eu/v1/lists/100000110633",
              "code" : "100000110655"
            },
            "denominator" : {
              "value" : 1,
              "unit" : "unit(s)",
              "system" : "https://spor.ema.europa.eu/v1/lists/100000110633",
              "code" : "100000110756"
            }
          },
          "referenceStrength" : [{
            "substance" : {
              "concept" : {
                "coding" : [{
                  "system" : "https://spor.ema.europa.eu/v2/SubstanceDefinition",
                  "code" : "100000085259",
                  "display" : "Amlodipine"
                }]
              }
            },
            "strengthRatio" : {
              "numerator" : {
                "value" : 10,
                "unit" : "milligram(s)",
                "system" : "https://spor.ema.europa.eu/v1/lists/100000110633",
                "code" : "100000110655"
              },
              "denominator" : {
                "value" : 1,
                "unit" : "unit(s)",
                "system" : "https://spor.ema.europa.eu/v1/lists/100000110633",
                "code" : "100000110756"
              }
            }
          }]
        }]
      }
    },
    "request" : {
      "method" : "PUT",
      "url" : "Ingredient/AMLbluefish-10mg-Tablet-SE-IS-Ingredient"
    }
  }]
}