{
  "resourceType" : "Bundle",
  "id" : "AMLHipres-10mg-Tablet-EE-FullProduct",
  "type" : "transaction",
  "entry" : [{
    "fullUrl" : "https://hl7-eu.github.io/unicom-ig/branches/mpd-r4b/MedicinalProductDefinition/Hipres-10mg-Tablet-EE-MPD",
    "resource" : {
      "resourceType" : "MedicinalProductDefinition",
      "id" : "Hipres-10mg-Tablet-EE-MPD",
      "meta" : {
        "profile" : ["http://unicom-project.eu/fhir/StructureDefinition/PPLMedicinalProductDefinition"]
      },
      "text" : {
        "status" : "generated",
        "div" : "<div xmlns=\"http://www.w3.org/1999/xhtml\"><p><b>Generated Narrative: MedicinalProductDefinition</b><a name=\"Hipres-10mg-Tablet-EE-MPD\"> </a></p><div style=\"display: inline-block; background-color: #d9e0e7; padding: 6px; margin: 4px; border: 1px solid #8da1b4; border-radius: 5px; line-height: 60%\"><p style=\"margin-bottom: 0px\">Resource MedicinalProductDefinition &quot;Hipres-10mg-Tablet-EE-MPD&quot; </p><p style=\"margin-bottom: 0px\">Profile: <a href=\"StructureDefinition-PPLMedicinalProductDefinition.html\">PPL Medicinal Product profile</a></p></div><p><b>identifier</b>: id: EE-100009540-1289</p><p><b>domain</b>: Human use <span style=\"background: LightGoldenRodYellow; margin: 4px; border: 1px solid khaki\"> (<a href=\"CodeSystem-domain-ema-cs.html\">Domain EMA</a>#100000000012)</span></p><p><b>status</b>: Current <span style=\"background: LightGoldenRodYellow; margin: 4px; border: 1px solid khaki\"> (<a href=\"CodeSystem-recordStatus-ema-cs.html\">Record Status EMA SPOR</a>#200000005004)</span></p><p><b>combinedPharmaceuticalDoseForm</b>: Tablet <span style=\"background: LightGoldenRodYellow; margin: 4px; border: 1px solid khaki\"> (<a href=\"CodeSystem-pharmaceutical-dose-form-ema-cs.html\">Pharmaceutical Dose Form EMA</a>#100000073664)</span></p><p><b>indication</b>: Hüpertensioon. Krooniline stabiilne stenokardia. Vasospastiline (Prinzmetali) stenokardia.</p><p><b>legalStatusOfSupply</b>: Medicinal product subject to medical prescription <span style=\"background: LightGoldenRodYellow; margin: 4px; border: 1px solid khaki\"> (<a href=\"CodeSystem-legal-status-for-the-supply-ema-cs.html\">Legal Status for the Supply EMA</a>#100000072084)</span></p><p><b>classification</b>: amlodipine <span style=\"background: LightGoldenRodYellow; margin: 4px; border: 1px solid khaki\"> (<a href=\"CodeSystem-ATC-Human-EMA.html\">ATC Human EMA</a>#100000095065)</span>, amlodipine <span style=\"background: LightGoldenRodYellow; margin: 4px; border: 1px solid khaki\"> (<a href=\"http://terminology.hl7.org/5.0.0/CodeSystem-v3-WC.html\">WHO ATC</a>#C08CA01)</span></p><blockquote><p><b>name</b></p><p><b>productName</b>: Hipres 10 mg tabletid</p><blockquote><p><b>part</b></p><p><b>part</b>: Hipres</p><p><b>type</b>: Invented name part <span style=\"background: LightGoldenRodYellow; margin: 4px; border: 1px solid khaki\"> (220000000000#220000000002)</span></p></blockquote><blockquote><p><b>part</b></p><p><b>part</b>: 10 mg</p><p><b>type</b>: Strength part <span style=\"background: LightGoldenRodYellow; margin: 4px; border: 1px solid khaki\"> (220000000000#220000000004)</span></p></blockquote><blockquote><p><b>part</b></p><p><b>part</b>: tabletid</p><p><b>type</b>: Pharmaceutical dose form part <span style=\"background: LightGoldenRodYellow; margin: 4px; border: 1px solid khaki\"> (220000000000#220000000005)</span></p></blockquote><h3>Usages</h3><table class=\"grid\"><tr><td>-</td><td><b>Country</b></td><td><b>Language</b></td></tr><tr><td>*</td><td>Republic of Estonia <span style=\"background: LightGoldenRodYellow; margin: 4px; border: 1px solid khaki\"> (<a href=\"CodeSystem-country-ema-cs.html\">Country EMA</a>#100000000388)</span></td><td>Estonian <span style=\"background: LightGoldenRodYellow; margin: 4px; border: 1px solid khaki\"> (<a href=\"CodeSystem-language-ema-cs.html\">Language EMA</a>#100000072172)</span></td></tr></table></blockquote></div>"
      },
      "identifier" : [{
        "system" : "http://ema.europa.eu/fhir/mpId",
        "value" : "EE-100009540-1289"
      }],
      "domain" : {
        "coding" : [{
          "system" : "https://spor.ema.europa.eu/v1/lists/100000000004",
          "code" : "100000000012",
          "display" : "Human use"
        }]
      },
      "status" : {
        "coding" : [{
          "system" : "https://spor.ema.europa.eu/v1/lists/200000005003",
          "code" : "200000005004",
          "display" : "Current"
        }]
      },
      "combinedPharmaceuticalDoseForm" : {
        "coding" : [{
          "system" : "https://spor.ema.europa.eu/v1/lists/200000000004",
          "code" : "100000073664",
          "display" : "Tablet"
        }]
      },
      "indication" : "Hüpertensioon. Krooniline stabiilne stenokardia. Vasospastiline (Prinzmetali) stenokardia.",
      "legalStatusOfSupply" : {
        "coding" : [{
          "system" : "https://spor.ema.europa.eu/v1/lists/100000072051",
          "code" : "100000072084",
          "display" : "Medicinal product subject to medical prescription"
        }]
      },
      "classification" : [{
        "coding" : [{
          "system" : "https://spor.ema.europa.eu/v1/lists/100000093533",
          "code" : "100000095065",
          "display" : "amlodipine"
        }]
      },
      {
        "coding" : [{
          "system" : "http://www.whocc.no/atc",
          "code" : "C08CA01",
          "display" : "amlodipine"
        }]
      }],
      "name" : [{
        "productName" : "Hipres 10 mg tabletid",
        "part" : [{
          "part" : "Hipres",
          "type" : {
            "coding" : [{
              "system" : "https://spor.ema.europa.eu/v1/lists/220000000000",
              "code" : "220000000002",
              "display" : "Invented name part"
            }]
          }
        },
        {
          "part" : "10 mg",
          "type" : {
            "coding" : [{
              "system" : "https://spor.ema.europa.eu/v1/lists/220000000000",
              "code" : "220000000004",
              "display" : "Strength part"
            }]
          }
        },
        {
          "part" : "tabletid",
          "type" : {
            "coding" : [{
              "system" : "https://spor.ema.europa.eu/v1/lists/220000000000",
              "code" : "220000000005",
              "display" : "Pharmaceutical dose form part"
            }]
          }
        }],
        "usage" : [{
          "country" : {
            "coding" : [{
              "system" : "https://spor.ema.europa.eu/v1/lists/100000000002",
              "code" : "100000000388",
              "display" : "Republic of Estonia"
            }]
          },
          "language" : {
            "coding" : [{
              "system" : "https://spor.ema.europa.eu/v1/lists/100000072057",
              "code" : "100000072172",
              "display" : "Estonian"
            }]
          }
        }]
      }]
    },
    "request" : {
      "method" : "PUT",
      "url" : "MedicinalProductDefinition/Hipres-10mg-Tablet-EE-MPD"
    }
  },
  {
    "fullUrl" : "https://hl7-eu.github.io/unicom-ig/branches/mpd-r4b/Organization/LOC-100009540-KrkaNovoMesto",
    "resource" : {
      "resourceType" : "Organization",
      "id" : "LOC-100009540-KrkaNovoMesto",
      "meta" : {
        "profile" : ["http://unicom-project.eu/fhir/StructureDefinition/PPLOrganization"]
      },
      "text" : {
        "status" : "generated",
        "div" : "<div xmlns=\"http://www.w3.org/1999/xhtml\"><p><b>Generated Narrative: Organization</b><a name=\"LOC-100009540-KrkaNovoMesto\"> </a></p><div style=\"display: inline-block; background-color: #d9e0e7; padding: 6px; margin: 4px; border: 1px solid #8da1b4; border-radius: 5px; line-height: 60%\"><p style=\"margin-bottom: 0px\">Resource Organization &quot;LOC-100009540-KrkaNovoMesto&quot; </p><p style=\"margin-bottom: 0px\">Profile: <a href=\"StructureDefinition-PPLOrganization.html\">PPL Organization</a></p></div><p><b>identifier</b>: id: LOC-100009540, id: ORG-100000627</p><p><b>name</b>: KRKA, d.d., Novo mesto</p></div>"
      },
      "identifier" : [{
        "system" : "https://spor.ema.europa.eu/v1/locations",
        "value" : "LOC-100009540"
      },
      {
        "system" : "https://spor.ema.europa.eu/v1/organisations",
        "value" : "ORG-100000627"
      }],
      "name" : "KRKA, d.d., Novo mesto"
    },
    "request" : {
      "method" : "PUT",
      "url" : "Organization/LOC-100009540-KrkaNovoMesto"
    }
  },
  {
    "fullUrl" : "https://hl7-eu.github.io/unicom-ig/branches/mpd-r4b/RegulatedAuthorization/Hipres-10mg-Tablet-EE-RA",
    "resource" : {
      "resourceType" : "RegulatedAuthorization",
      "id" : "Hipres-10mg-Tablet-EE-RA",
      "meta" : {
        "profile" : ["http://unicom-project.eu/fhir/StructureDefinition/PPLRegulatedAuthorization"]
      },
      "text" : {
        "status" : "generated",
        "div" : "<div xmlns=\"http://www.w3.org/1999/xhtml\"><p><b>Generated Narrative: RegulatedAuthorization</b><a name=\"Hipres-10mg-Tablet-EE-RA\"> </a></p><div style=\"display: inline-block; background-color: #d9e0e7; padding: 6px; margin: 4px; border: 1px solid #8da1b4; border-radius: 5px; line-height: 60%\"><p style=\"margin-bottom: 0px\">Resource RegulatedAuthorization &quot;Hipres-10mg-Tablet-EE-RA&quot; </p><p style=\"margin-bottom: 0px\">Profile: <a href=\"StructureDefinition-PPLRegulatedAuthorization.html\">PPL Marketing Authorisation profile</a></p></div><p><b>identifier</b>: id: 441504</p><p><b>subject</b>: <a href=\"#MedicinalProductDefinition_Hipres-10mg-Tablet-EE-MPD\">See above (MedicinalProductDefinition/Hipres-10mg-Tablet-EE-MPD)</a></p><p><b>type</b>: Marketing Authorisation <span style=\"background: LightGoldenRodYellow; margin: 4px; border: 1px solid khaki\"> (220000000060#220000000061)</span></p><p><b>region</b>: Republic of Estonia <span style=\"background: LightGoldenRodYellow; margin: 4px; border: 1px solid khaki\"> (<a href=\"CodeSystem-country-ema-cs.html\">Country EMA</a>#100000000388)</span></p><p><b>status</b>: Valid - Renewed/Varied <span style=\"background: LightGoldenRodYellow; margin: 4px; border: 1px solid khaki\"> (<a href=\"CodeSystem-regulatoryStatus-ema-cs.html\">Regulatory Entitlement Status EMA SPOR</a>#200000017708)</span></p><p><b>statusDate</b>: 2014-02-28</p><p><b>holder</b>: <a href=\"#Organization_LOC-100009540-KrkaNovoMesto\">See above (Organization/LOC-100009540-KrkaNovoMesto)</a></p></div>"
      },
      "identifier" : [{
        "value" : "441504"
      }],
      "subject" : [{
        "reference" : "MedicinalProductDefinition/Hipres-10mg-Tablet-EE-MPD"
      }],
      "type" : {
        "coding" : [{
          "system" : "https://spor.ema.europa.eu/v1/lists/220000000060",
          "code" : "220000000061",
          "display" : "Marketing Authorisation"
        }]
      },
      "region" : [{
        "coding" : [{
          "system" : "https://spor.ema.europa.eu/v1/lists/100000000002",
          "code" : "100000000388",
          "display" : "Republic of Estonia"
        }]
      }],
      "status" : {
        "coding" : [{
          "system" : "https://spor.ema.europa.eu/v1/lists/100000072049",
          "code" : "200000017708",
          "display" : "Valid - Renewed/Varied"
        }]
      },
      "statusDate" : "2014-02-28",
      "holder" : {
        "reference" : "Organization/LOC-100009540-KrkaNovoMesto"
      }
    },
    "request" : {
      "method" : "PUT",
      "url" : "RegulatedAuthorization/Hipres-10mg-Tablet-EE-RA"
    }
  },
  {
    "fullUrl" : "https://hl7-eu.github.io/unicom-ig/branches/mpd-r4b/AdministrableProductDefinition/Hipres-10mg-Tablet-EE-APD",
    "resource" : {
      "resourceType" : "AdministrableProductDefinition",
      "id" : "Hipres-10mg-Tablet-EE-APD",
      "meta" : {
        "profile" : ["http://unicom-project.eu/fhir/StructureDefinition/PPLAdministrableProductDefinition"]
      },
      "text" : {
        "status" : "generated",
        "div" : "<div xmlns=\"http://www.w3.org/1999/xhtml\"><p><b>Generated Narrative: AdministrableProductDefinition</b><a name=\"Hipres-10mg-Tablet-EE-APD\"> </a></p><div style=\"display: inline-block; background-color: #d9e0e7; padding: 6px; margin: 4px; border: 1px solid #8da1b4; border-radius: 5px; line-height: 60%\"><p style=\"margin-bottom: 0px\">Resource AdministrableProductDefinition &quot;Hipres-10mg-Tablet-EE-APD&quot; </p><p style=\"margin-bottom: 0px\">Profile: <a href=\"StructureDefinition-PPLAdministrableProductDefinition.html\">PPL Administrable Product profile</a></p></div><p><b>status</b>: active</p><p><b>formOf</b>: <a href=\"#MedicinalProductDefinition_Hipres-10mg-Tablet-EE-MPD\">See above (MedicinalProductDefinition/Hipres-10mg-Tablet-EE-MPD)</a></p><p><b>administrableDoseForm</b>: Tablet <span style=\"background: LightGoldenRodYellow; margin: 4px; border: 1px solid khaki\"> (<a href=\"CodeSystem-pharmaceutical-dose-form-ema-cs.html\">Pharmaceutical Dose Form EMA</a>#100000073664)</span></p><p><b>producedFrom</b>: <a href=\"#ManufacturedItemDefinition_Hipres-10mg-Tablet-EE-MID\">See above (ManufacturedItemDefinition/Hipres-10mg-Tablet-EE-MID)</a></p><h3>RouteOfAdministrations</h3><table class=\"grid\"><tr><td>-</td><td><b>Code</b></td></tr><tr><td>*</td><td>Oral use <span style=\"background: LightGoldenRodYellow; margin: 4px; border: 1px solid khaki\"> (<a href=\"CodeSystem-routes-and-methods-of-administration-ema-cs.html\">Routes and Methods of Administration EMA</a>#100000073619)</span></td></tr></table></div>"
      },
      "status" : "active",
      "formOf" : [{
        "reference" : "MedicinalProductDefinition/Hipres-10mg-Tablet-EE-MPD"
      }],
      "administrableDoseForm" : {
        "coding" : [{
          "system" : "https://spor.ema.europa.eu/v1/lists/200000000004",
          "code" : "100000073664",
          "display" : "Tablet"
        }]
      },
      "producedFrom" : [{
        "reference" : "ManufacturedItemDefinition/Hipres-10mg-Tablet-EE-MID"
      }],
      "routeOfAdministration" : [{
        "code" : {
          "coding" : [{
            "system" : "https://spor.ema.europa.eu/v1/lists/100000073345",
            "code" : "100000073619",
            "display" : "Oral use"
          }]
        }
      }]
    },
    "request" : {
      "method" : "PUT",
      "url" : "AdministrableProductDefinition/Hipres-10mg-Tablet-EE-APD"
    }
  },
  {
    "fullUrl" : "https://hl7-eu.github.io/unicom-ig/branches/mpd-r4b/PackagedProductDefinition/Hipres-10mg-Tablet-EE-PPD-1122972",
    "resource" : {
      "resourceType" : "PackagedProductDefinition",
      "id" : "Hipres-10mg-Tablet-EE-PPD-1122972",
      "meta" : {
        "profile" : ["http://unicom-project.eu/fhir/StructureDefinition/PPLPackagedProductDefinition"]
      },
      "text" : {
        "status" : "generated",
        "div" : "<div xmlns=\"http://www.w3.org/1999/xhtml\"><p><b>Generated Narrative: PackagedProductDefinition</b><a name=\"Hipres-10mg-Tablet-EE-PPD-1122972\"> </a></p><div style=\"display: inline-block; background-color: #d9e0e7; padding: 6px; margin: 4px; border: 1px solid #8da1b4; border-radius: 5px; line-height: 60%\"><p style=\"margin-bottom: 0px\">Resource PackagedProductDefinition &quot;Hipres-10mg-Tablet-EE-PPD-1122972&quot; </p><p style=\"margin-bottom: 0px\">Profile: <a href=\"StructureDefinition-PPLPackagedProductDefinition.html\">PPL Packaged Product profile</a></p></div><p><b>identifier</b>: id: EE-100009540-1289-1122972</p><p><b>packageFor</b>: <a href=\"#MedicinalProductDefinition_Hipres-10mg-Tablet-EE-MPD\">See above (MedicinalProductDefinition/Hipres-10mg-Tablet-EE-MPD)</a></p><p><b>containedItemQuantity</b>: 30 tablet<span style=\"background: LightGoldenRodYellow\"> (Details: https://spor.ema.europa.eu/v1/lists/200000000014 code 200000002152 = 'Tablet')</span></p><p><b>description</b>: Blisterpakend (lamineeritud OPA-Al-PVC foolium, alumiiniumfoolium). 30 tabletti pakendis.</p><h3>MarketingStatuses</h3><table class=\"grid\"><tr><td>-</td><td><b>Country</b></td><td><b>Status</b></td></tr><tr><td>*</td><td>Republic of Estonia <span style=\"background: LightGoldenRodYellow; margin: 4px; border: 1px solid khaki\"> (<a href=\"CodeSystem-country-ema-cs.html\">Country EMA</a>#100000000388)</span></td><td>Marketed <span style=\"background: LightGoldenRodYellow; margin: 4px; border: 1px solid khaki\"> (<a href=\"CodeSystem-Marketing-Status-ema-cs.html\">Marketing Status EMA</a>#100000072083)</span></td></tr></table><blockquote><p><b>packaging</b></p><p><b>type</b>: Box <span style=\"background: LightGoldenRodYellow; margin: 4px; border: 1px solid khaki\"> (<a href=\"CodeSystem-packaging-ema-cs.html\">Packaging EMA SPOR</a>#100000073498)</span></p><p><b>quantity</b>: 1</p><p><b>material</b>: Cardboard <span style=\"background: LightGoldenRodYellow; margin: 4px; border: 1px solid khaki\"> (<a href=\"CodeSystem-material-ema-cs.html\">Material EMA</a>#200000003529)</span></p><blockquote><p><b>packaging</b></p><p><b>type</b>: Blister <span style=\"background: LightGoldenRodYellow; margin: 4px; border: 1px solid khaki\"> (<a href=\"CodeSystem-packaging-ema-cs.html\">Packaging EMA SPOR</a>#100000073496)</span></p><p><b>quantity</b>: 1</p><p><b>material</b>: Aluminium <span style=\"background: LightGoldenRodYellow; margin: 4px; border: 1px solid khaki\"> (<a href=\"CodeSystem-material-ema-cs.html\">Material EMA</a>#200000003200)</span>, Orientated PolyAmide <span style=\"background: LightGoldenRodYellow; margin: 4px; border: 1px solid khaki\"> (<a href=\"CodeSystem-material-ema-cs.html\">Material EMA</a>#200000003210)</span>, PolyVinylidene Chloride <span style=\"background: LightGoldenRodYellow; margin: 4px; border: 1px solid khaki\"> (<a href=\"CodeSystem-material-ema-cs.html\">Material EMA</a>#200000003225)</span></p></blockquote></blockquote></div>"
      },
      "identifier" : [{
        "system" : "http://ema.europa.eu/example/pcid",
        "value" : "EE-100009540-1289-1122972"
      }],
      "packageFor" : [{
        "reference" : "MedicinalProductDefinition/Hipres-10mg-Tablet-EE-MPD"
      }],
      "containedItemQuantity" : [{
        "value" : 30,
        "unit" : "tablet",
        "system" : "https://spor.ema.europa.eu/v1/lists/200000000014",
        "code" : "200000002152"
      }],
      "description" : "Blisterpakend (lamineeritud OPA-Al-PVC foolium, alumiiniumfoolium). 30 tabletti pakendis.",
      "marketingStatus" : [{
        "country" : {
          "coding" : [{
            "system" : "https://spor.ema.europa.eu/v1/lists/100000000002",
            "code" : "100000000388",
            "display" : "Republic of Estonia"
          }]
        },
        "status" : {
          "coding" : [{
            "system" : "https://spor.ema.europa.eu/v1/lists/100000072052",
            "code" : "100000072083",
            "display" : "Marketed"
          }]
        }
      }],
      "packaging" : {
        "type" : {
          "coding" : [{
            "system" : "https://spor.ema.europa.eu/v1/lists/100000073346",
            "code" : "100000073498",
            "display" : "Box"
          }]
        },
        "quantity" : 1,
        "material" : [{
          "coding" : [{
            "system" : "https://spor.ema.europa.eu/v1/lists/200000003199",
            "code" : "200000003529",
            "display" : "Cardboard"
          }]
        }],
        "packaging" : [{
          "type" : {
            "coding" : [{
              "system" : "https://spor.ema.europa.eu/v1/lists/100000073346",
              "code" : "100000073496",
              "display" : "Blister"
            }]
          },
          "quantity" : 1,
          "material" : [{
            "coding" : [{
              "system" : "https://spor.ema.europa.eu/v1/lists/200000003199",
              "code" : "200000003200",
              "display" : "Aluminium"
            }]
          },
          {
            "coding" : [{
              "system" : "https://spor.ema.europa.eu/v1/lists/200000003199",
              "code" : "200000003210",
              "display" : "Orientated PolyAmide"
            }]
          },
          {
            "coding" : [{
              "system" : "https://spor.ema.europa.eu/v1/lists/200000003199",
              "code" : "200000003225",
              "display" : "PolyVinylidene Chloride"
            }]
          }],
          "containedItem" : [{
            "item" : {
              "reference" : {
                "reference" : "ManufacturedItemDefinition/Hipres-10mg-Tablet-EE-MID"
              }
            },
            "amount" : {
              "value" : 30,
              "unit" : "tablet",
              "system" : "https://spor.ema.europa.eu/v1/lists/200000000014",
              "code" : "200000002152"
            }
          }]
        }]
      }
    },
    "request" : {
      "method" : "PUT",
      "url" : "PackagedProductDefinition/Hipres-10mg-Tablet-EE-PPD-1122972"
    }
  },
  {
    "fullUrl" : "https://hl7-eu.github.io/unicom-ig/branches/mpd-r4b/PackagedProductDefinition/Hipres-10mg-Tablet-EE-PPD-1551406",
    "resource" : {
      "resourceType" : "PackagedProductDefinition",
      "id" : "Hipres-10mg-Tablet-EE-PPD-1551406",
      "meta" : {
        "profile" : ["http://unicom-project.eu/fhir/StructureDefinition/PPLPackagedProductDefinition"]
      },
      "text" : {
        "status" : "generated",
        "div" : "<div xmlns=\"http://www.w3.org/1999/xhtml\"><p><b>Generated Narrative: PackagedProductDefinition</b><a name=\"Hipres-10mg-Tablet-EE-PPD-1551406\"> </a></p><div style=\"display: inline-block; background-color: #d9e0e7; padding: 6px; margin: 4px; border: 1px solid #8da1b4; border-radius: 5px; line-height: 60%\"><p style=\"margin-bottom: 0px\">Resource PackagedProductDefinition &quot;Hipres-10mg-Tablet-EE-PPD-1551406&quot; </p><p style=\"margin-bottom: 0px\">Profile: <a href=\"StructureDefinition-PPLPackagedProductDefinition.html\">PPL Packaged Product profile</a></p></div><p><b>identifier</b>: id: EE-100009540-1289-1551406</p><p><b>packageFor</b>: <a href=\"#MedicinalProductDefinition_Hipres-10mg-Tablet-EE-MPD\">See above (MedicinalProductDefinition/Hipres-10mg-Tablet-EE-MPD)</a></p><p><b>containedItemQuantity</b>: 60 tablet<span style=\"background: LightGoldenRodYellow\"> (Details: https://spor.ema.europa.eu/v1/lists/200000000014 code 200000002152 = 'Tablet')</span></p><p><b>description</b>: Blisterpakend (lamineeritud OPA-Al-PVC foolium, alumiiniumfoolium). 60 tabletti pakendis.</p><h3>MarketingStatuses</h3><table class=\"grid\"><tr><td>-</td><td><b>Country</b></td><td><b>Status</b></td></tr><tr><td>*</td><td>Republic of Estonia <span style=\"background: LightGoldenRodYellow; margin: 4px; border: 1px solid khaki\"> (<a href=\"CodeSystem-country-ema-cs.html\">Country EMA</a>#100000000388)</span></td><td>Marketed <span style=\"background: LightGoldenRodYellow; margin: 4px; border: 1px solid khaki\"> (<a href=\"CodeSystem-Marketing-Status-ema-cs.html\">Marketing Status EMA</a>#100000072083)</span></td></tr></table><blockquote><p><b>packaging</b></p><p><b>type</b>: Box <span style=\"background: LightGoldenRodYellow; margin: 4px; border: 1px solid khaki\"> (<a href=\"CodeSystem-packaging-ema-cs.html\">Packaging EMA SPOR</a>#100000073498)</span></p><p><b>quantity</b>: 1</p><p><b>material</b>: Cardboard <span style=\"background: LightGoldenRodYellow; margin: 4px; border: 1px solid khaki\"> (<a href=\"CodeSystem-material-ema-cs.html\">Material EMA</a>#200000003529)</span></p><blockquote><p><b>packaging</b></p><p><b>type</b>: Blister <span style=\"background: LightGoldenRodYellow; margin: 4px; border: 1px solid khaki\"> (<a href=\"CodeSystem-packaging-ema-cs.html\">Packaging EMA SPOR</a>#100000073496)</span></p><p><b>quantity</b>: 1</p><p><b>material</b>: Aluminium <span style=\"background: LightGoldenRodYellow; margin: 4px; border: 1px solid khaki\"> (<a href=\"CodeSystem-material-ema-cs.html\">Material EMA</a>#200000003200)</span>, Orientated PolyAmide <span style=\"background: LightGoldenRodYellow; margin: 4px; border: 1px solid khaki\"> (<a href=\"CodeSystem-material-ema-cs.html\">Material EMA</a>#200000003210)</span>, PolyVinylidene Chloride <span style=\"background: LightGoldenRodYellow; margin: 4px; border: 1px solid khaki\"> (<a href=\"CodeSystem-material-ema-cs.html\">Material EMA</a>#200000003225)</span></p></blockquote></blockquote></div>"
      },
      "identifier" : [{
        "system" : "http://ema.europa.eu/example/pcid",
        "value" : "EE-100009540-1289-1551406"
      }],
      "packageFor" : [{
        "reference" : "MedicinalProductDefinition/Hipres-10mg-Tablet-EE-MPD"
      }],
      "containedItemQuantity" : [{
        "value" : 60,
        "unit" : "tablet",
        "system" : "https://spor.ema.europa.eu/v1/lists/200000000014",
        "code" : "200000002152"
      }],
      "description" : "Blisterpakend (lamineeritud OPA-Al-PVC foolium, alumiiniumfoolium). 60 tabletti pakendis.",
      "marketingStatus" : [{
        "country" : {
          "coding" : [{
            "system" : "https://spor.ema.europa.eu/v1/lists/100000000002",
            "code" : "100000000388",
            "display" : "Republic of Estonia"
          }]
        },
        "status" : {
          "coding" : [{
            "system" : "https://spor.ema.europa.eu/v1/lists/100000072052",
            "code" : "100000072083",
            "display" : "Marketed"
          }]
        }
      }],
      "packaging" : {
        "type" : {
          "coding" : [{
            "system" : "https://spor.ema.europa.eu/v1/lists/100000073346",
            "code" : "100000073498",
            "display" : "Box"
          }]
        },
        "quantity" : 1,
        "material" : [{
          "coding" : [{
            "system" : "https://spor.ema.europa.eu/v1/lists/200000003199",
            "code" : "200000003529",
            "display" : "Cardboard"
          }]
        }],
        "packaging" : [{
          "type" : {
            "coding" : [{
              "system" : "https://spor.ema.europa.eu/v1/lists/100000073346",
              "code" : "100000073496",
              "display" : "Blister"
            }]
          },
          "quantity" : 1,
          "material" : [{
            "coding" : [{
              "system" : "https://spor.ema.europa.eu/v1/lists/200000003199",
              "code" : "200000003200",
              "display" : "Aluminium"
            }]
          },
          {
            "coding" : [{
              "system" : "https://spor.ema.europa.eu/v1/lists/200000003199",
              "code" : "200000003210",
              "display" : "Orientated PolyAmide"
            }]
          },
          {
            "coding" : [{
              "system" : "https://spor.ema.europa.eu/v1/lists/200000003199",
              "code" : "200000003225",
              "display" : "PolyVinylidene Chloride"
            }]
          }],
          "containedItem" : [{
            "item" : {
              "reference" : {
                "reference" : "ManufacturedItemDefinition/Hipres-10mg-Tablet-EE-MID"
              }
            },
            "amount" : {
              "value" : 60,
              "unit" : "tablet",
              "system" : "https://spor.ema.europa.eu/v1/lists/200000000014",
              "code" : "200000002152"
            }
          }]
        }]
      }
    },
    "request" : {
      "method" : "PUT",
      "url" : "PackagedProductDefinition/Hipres-10mg-Tablet-EE-PPD-1551406"
    }
  },
  {
    "fullUrl" : "https://hl7-eu.github.io/unicom-ig/branches/mpd-r4b/ManufacturedItemDefinition/Hipres-10mg-Tablet-EE-MID",
    "resource" : {
      "resourceType" : "ManufacturedItemDefinition",
      "id" : "Hipres-10mg-Tablet-EE-MID",
      "meta" : {
        "profile" : ["http://unicom-project.eu/fhir/StructureDefinition/PPLManufacturedItemDefinition"]
      },
      "text" : {
        "status" : "generated",
        "div" : "<div xmlns=\"http://www.w3.org/1999/xhtml\"><p><b>Generated Narrative: ManufacturedItemDefinition</b><a name=\"Hipres-10mg-Tablet-EE-MID\"> </a></p><div style=\"display: inline-block; background-color: #d9e0e7; padding: 6px; margin: 4px; border: 1px solid #8da1b4; border-radius: 5px; line-height: 60%\"><p style=\"margin-bottom: 0px\">Resource ManufacturedItemDefinition &quot;Hipres-10mg-Tablet-EE-MID&quot; </p><p style=\"margin-bottom: 0px\">Profile: <a href=\"StructureDefinition-PPLManufacturedItemDefinition.html\">PPL Manufactured Item profile</a></p></div><p><b>status</b>: active</p><p><b>manufacturedDoseForm</b>: Tablet <span style=\"background: LightGoldenRodYellow; margin: 4px; border: 1px solid khaki\"> (<a href=\"CodeSystem-pharmaceutical-dose-form-ema-cs.html\">Pharmaceutical Dose Form EMA</a>#100000073664)</span></p><p><b>unitOfPresentation</b>: tablet <span style=\"background: LightGoldenRodYellow; margin: 4px; border: 1px solid khaki\"> (<a href=\"CodeSystem-unit-of-presentation-ema-cs.html\">Unit of Presentation EMA</a>#200000002152)</span></p></div>"
      },
      "status" : "active",
      "manufacturedDoseForm" : {
        "coding" : [{
          "system" : "https://spor.ema.europa.eu/v1/lists/200000000004",
          "code" : "100000073664",
          "display" : "Tablet"
        }]
      },
      "unitOfPresentation" : {
        "coding" : [{
          "system" : "https://spor.ema.europa.eu/v1/lists/200000000014",
          "code" : "200000002152",
          "display" : "tablet"
        }]
      }
    },
    "request" : {
      "method" : "PUT",
      "url" : "ManufacturedItemDefinition/Hipres-10mg-Tablet-EE-MID"
    }
  },
  {
    "fullUrl" : "https://hl7-eu.github.io/unicom-ig/branches/mpd-r4b/Hipres-10mg-Tablet-EE-I",
    "resource" : {
      "resourceType" : "Ingredient",
      "id" : "Hipres-10mg-Tablet-EE-I",
      "meta" : {
        "profile" : ["http://unicom-project.eu/fhir/StructureDefinition/PPLIngredient"]
      },
      "text" : {
        "status" : "generated",
        "div" : "<div xmlns=\"http://www.w3.org/1999/xhtml\"><p><b>Generated Narrative: Ingredient</b><a name=\"Hipres-10mg-Tablet-EE-I\"> </a></p><div style=\"display: inline-block; background-color: #d9e0e7; padding: 6px; margin: 4px; border: 1px solid #8da1b4; border-radius: 5px; line-height: 60%\"><p style=\"margin-bottom: 0px\">Resource Ingredient &quot;Hipres-10mg-Tablet-EE-I&quot; </p><p style=\"margin-bottom: 0px\">Profile: <a href=\"StructureDefinition-PPLIngredient.html\">PPL Ingredient profile</a></p></div><p><b>status</b>: active</p><p><b>for</b>: </p><ul><li><a href=\"#MedicinalProductDefinition_Hipres-10mg-Tablet-EE-MPD\">See above (MedicinalProductDefinition/Hipres-10mg-Tablet-EE-MPD)</a></li><li><a href=\"#ManufacturedItemDefinition_Hipres-10mg-Tablet-EE-MID\">See above (ManufacturedItemDefinition/Hipres-10mg-Tablet-EE-MID)</a></li><li><a href=\"#AdministrableProductDefinition_Hipres-10mg-Tablet-EE-APD\">See above (AdministrableProductDefinition/Hipres-10mg-Tablet-EE-APD)</a></li></ul><p><b>role</b>: Active <span style=\"background: LightGoldenRodYellow; margin: 4px; border: 1px solid khaki\"> (100000072050#100000072072)</span></p><blockquote><p><b>substance</b></p><h3>Codes</h3><table class=\"grid\"><tr><td>-</td><td><b>Concept</b></td></tr><tr><td>*</td><td>Amlodipine maleate <span style=\"background: LightGoldenRodYellow; margin: 4px; border: 1px solid khaki\"> (<a href=\"CodeSystem-substance-sms-cs.html\">Substances EMA SPOR SMS</a>#100000089370)</span></td></tr></table><blockquote><p><b>strength</b></p><p><b>presentation</b>: 12.96 milligram(s)<span style=\"background: LightGoldenRodYellow\"> (Details: https://spor.ema.europa.eu/v1/lists/100000110633 code 100000110655 = 'milligram(s)')</span>/1 tablet<span style=\"background: LightGoldenRodYellow\"> (Details: https://spor.ema.europa.eu/v1/lists/200000000014 code 200000002152 = 'Tablet')</span></p><blockquote><p><b>referenceStrength</b></p><h3>Substances</h3><table class=\"grid\"><tr><td>-</td><td><b>Concept</b></td></tr><tr><td>*</td><td>Amlodipine <span style=\"background: LightGoldenRodYellow; margin: 4px; border: 1px solid khaki\"> (<a href=\"CodeSystem-substance-sms-cs.html\">Substances EMA SPOR SMS</a>#100000085259)</span></td></tr></table><p><b>strength</b>: 10 milligram(s)<span style=\"background: LightGoldenRodYellow\"> (Details: https://spor.ema.europa.eu/v1/lists/100000110633 code 100000110655 = 'milligram(s)')</span>/1 tablet<span style=\"background: LightGoldenRodYellow\"> (Details: https://spor.ema.europa.eu/v1/lists/200000000014 code 200000002152 = 'Tablet')</span></p></blockquote></blockquote></blockquote></div>"
      },
      "status" : "active",
      "for" : [{
        "reference" : "MedicinalProductDefinition/Hipres-10mg-Tablet-EE-MPD"
      },
      {
        "reference" : "ManufacturedItemDefinition/Hipres-10mg-Tablet-EE-MID"
      },
      {
        "reference" : "AdministrableProductDefinition/Hipres-10mg-Tablet-EE-APD"
      }],
      "role" : {
        "coding" : [{
          "system" : "https://spor.ema.europa.eu/v1/lists/100000072050",
          "code" : "100000072072",
          "display" : "Active"
        }]
      },
      "substance" : {
        "code" : {
          "concept" : {
            "coding" : [{
              "system" : "https://spor.ema.europa.eu/v2/SubstanceDefinition",
              "code" : "100000089370",
              "display" : "Amlodipine maleate"
            }]
          }
        },
        "strength" : [{
          "presentationRatio" : {
            "numerator" : {
              "value" : 12.96,
              "unit" : "milligram(s)",
              "system" : "https://spor.ema.europa.eu/v1/lists/100000110633",
              "code" : "100000110655"
            },
            "denominator" : {
              "value" : 1,
              "unit" : "tablet",
              "system" : "https://spor.ema.europa.eu/v1/lists/200000000014",
              "code" : "200000002152"
            }
          },
          "referenceStrength" : [{
            "substance" : {
              "concept" : {
                "coding" : [{
                  "system" : "https://spor.ema.europa.eu/v2/SubstanceDefinition",
                  "code" : "100000085259",
                  "display" : "Amlodipine"
                }]
              }
            },
            "strengthRatio" : {
              "numerator" : {
                "value" : 10,
                "unit" : "milligram(s)",
                "system" : "https://spor.ema.europa.eu/v1/lists/100000110633",
                "code" : "100000110655"
              },
              "denominator" : {
                "value" : 1,
                "unit" : "tablet",
                "system" : "https://spor.ema.europa.eu/v1/lists/200000000014",
                "code" : "200000002152"
              }
            }
          }]
        }]
      }
    },
    "request" : {
      "method" : "PUT",
      "url" : "Ingredient/Hipres-10mg-Tablet-EE-I"
    }
  }]
}