{
  "resourceType" : "Bundle",
  "id" : "013-LantusSolostar-EE-FullProduct",
  "type" : "collection",
  "entry" : [{
    "fullUrl" : "https://hl7-eu.github.io/unicom-ig/branches/mpd-r4b/MedicinalProductDefinition-LantusSolostar-EE-MPD",
    "resource" : {
      "resourceType" : "MedicinalProductDefinition",
      "id" : "LantusSolostar-EE-MPD",
      "meta" : {
        "profile" : ["http://unicom-project.eu/fhir/StructureDefinition/PPLMedicinalProductDefinition"]
      },
      "text" : {
        "status" : "generated",
        "div" : "<div xmlns=\"http://www.w3.org/1999/xhtml\"><a name=\"MedicinalProductDefinition_LantusSolostar-EE-MPD\"> </a><p class=\"res-header-id\"><b>Generated Narrative: MedicinalProductDefinition LantusSolostar-EE-MPD</b></p><a name=\"LantusSolostar-EE-MPD\"> </a><a name=\"hcLantusSolostar-EE-MPD\"> </a><a name=\"hcLantusSolostar-EE-MPD-en-US\"> </a><p><b>identifier</b>: <code>http://ema.europa.eu/fhir/mpId</code>/EE-100000869-3157</p><p><b>domain</b>: <span title=\"Codes:{https://spor.ema.europa.eu/v1/lists/100000000004 100000000012}\">Human use</span></p><p><b>status</b>: <span title=\"Codes:{https://spor.ema.europa.eu/v1/lists/200000005003 200000005004}\">Current</span></p><p><b>combinedPharmaceuticalDoseForm</b>: <span title=\"Codes:{https://spor.ema.europa.eu/v1/lists/200000000007 100000074039}\">Solution for injection in pre-filled pen</span></p><p><b>legalStatusOfSupply</b>: <span title=\"Codes:{https://spor.ema.europa.eu/v1/lists/100000072051 100000072084}\">Medicinal product subject to medical prescription</span></p><p><b>classification</b>: <span title=\"Codes:{https://spor.ema.europa.eu/v1/lists/100000093533 100000094023}\">insulin glargine</span>, <span title=\"Codes:{http://www.whocc.no/atc A10AE04}\">insulin glargine</span></p><blockquote><p><b>name</b></p><p><b>productName</b>: Lantus SoloStar 100 ühikut/ml süstelahus pen-süstlis</p><blockquote><p><b>part</b></p><p><b>part</b>: Lantus Solostar</p><p><b>type</b>: <span title=\"Codes:{https://spor.ema.europa.eu/v1/lists/220000000000 220000000002}\">Invented name part</span></p></blockquote><blockquote><p><b>part</b></p><p><b>part</b>: 100 ühikut/ml</p><p><b>type</b>: <span title=\"Codes:{https://spor.ema.europa.eu/v1/lists/220000000000 220000000004}\">Strength part</span></p></blockquote><blockquote><p><b>part</b></p><p><b>part</b>: süstelahus pen-süstlis</p><p><b>type</b>: <span title=\"Codes:{https://spor.ema.europa.eu/v1/lists/220000000000 220000000005}\">Pharmaceutical dose form part</span></p></blockquote><h3>Usages</h3><table class=\"grid\"><tr><td style=\"display: none\">-</td><td><b>Country</b></td><td><b>Language</b></td></tr><tr><td style=\"display: none\">*</td><td><span title=\"Codes:{https://spor.ema.europa.eu/v1/lists/100000000002 100000000388}\">Republic of Estonia</span></td><td><span title=\"Codes:{urn:ietf:bcp:47 et}\">Estonian</span></td></tr></table></blockquote></div>"
      },
      "identifier" : [{
        "system" : "http://ema.europa.eu/fhir/mpId",
        "value" : "EE-100000869-3157"
      }],
      "domain" : {
        "coding" : [{
          "system" : "https://spor.ema.europa.eu/v1/lists/100000000004",
          "code" : "100000000012",
          "display" : "Human use"
        }]
      },
      "status" : {
        "coding" : [{
          "system" : "https://spor.ema.europa.eu/v1/lists/200000005003",
          "code" : "200000005004",
          "display" : "Current"
        }]
      },
      "combinedPharmaceuticalDoseForm" : {
        "coding" : [{
          "system" : "https://spor.ema.europa.eu/v1/lists/200000000007",
          "code" : "100000074039",
          "display" : "Solution for injection in pre-filled pen"
        }]
      },
      "legalStatusOfSupply" : {
        "coding" : [{
          "system" : "https://spor.ema.europa.eu/v1/lists/100000072051",
          "code" : "100000072084",
          "display" : "Medicinal product subject to medical prescription"
        }]
      },
      "classification" : [{
        "coding" : [{
          "system" : "https://spor.ema.europa.eu/v1/lists/100000093533",
          "code" : "100000094023",
          "display" : "insulin glargine"
        }]
      },
      {
        "coding" : [{
          "system" : "http://www.whocc.no/atc",
          "code" : "A10AE04",
          "display" : "insulin glargine"
        }]
      }],
      "name" : [{
        "productName" : "Lantus SoloStar 100 ühikut/ml süstelahus pen-süstlis",
        "part" : [{
          "part" : "Lantus Solostar",
          "type" : {
            "coding" : [{
              "system" : "https://spor.ema.europa.eu/v1/lists/220000000000",
              "code" : "220000000002",
              "display" : "Invented name part"
            }]
          }
        },
        {
          "part" : "100 ühikut/ml",
          "type" : {
            "coding" : [{
              "system" : "https://spor.ema.europa.eu/v1/lists/220000000000",
              "code" : "220000000004",
              "display" : "Strength part"
            }]
          }
        },
        {
          "part" : "süstelahus pen-süstlis",
          "type" : {
            "coding" : [{
              "system" : "https://spor.ema.europa.eu/v1/lists/220000000000",
              "code" : "220000000005",
              "display" : "Pharmaceutical dose form part"
            }]
          }
        }],
        "usage" : [{
          "country" : {
            "coding" : [{
              "system" : "https://spor.ema.europa.eu/v1/lists/100000000002",
              "code" : "100000000388",
              "display" : "Republic of Estonia"
            }]
          },
          "language" : {
            "coding" : [{
              "system" : "urn:ietf:bcp:47",
              "code" : "et",
              "display" : "Estonian"
            }]
          }
        }]
      }]
    }
  },
  {
    "fullUrl" : "https://hl7-eu.github.io/unicom-ig/branches/mpd-r4b/RegulatedAuthorization-LantusSolostar-EE-RA",
    "resource" : {
      "resourceType" : "RegulatedAuthorization",
      "id" : "LantusSolostar-EE-RA",
      "meta" : {
        "profile" : ["http://unicom-project.eu/fhir/StructureDefinition/PPLRegulatedAuthorization"]
      },
      "text" : {
        "status" : "generated",
        "div" : "<div xmlns=\"http://www.w3.org/1999/xhtml\"><a name=\"RegulatedAuthorization_LantusSolostar-EE-RA\"> </a><p class=\"res-header-id\"><b>Generated Narrative: RegulatedAuthorization LantusSolostar-EE-RA</b></p><a name=\"LantusSolostar-EE-RA\"> </a><a name=\"hcLantusSolostar-EE-RA\"> </a><a name=\"hcLantusSolostar-EE-RA-en-US\"> </a><p><b>identifier</b>: EU/1/00/134</p><p><b>subject</b>: <a href=\"Bundle-013-LantusSolostar-EE-FullProduct.html#MedicinalProductDefinition_LantusSolostar-EE-MPD\">Bundle: type = collection</a></p><p><b>type</b>: <span title=\"Codes:{https://spor.ema.europa.eu/v1/lists/220000000060 220000000061}\">Marketing Authorisation</span></p><p><b>region</b>: <span title=\"Codes:{https://spor.ema.europa.eu/v1/lists/100000000002 100000000390}\">European Union</span></p><p><b>status</b>: <span title=\"Codes:{https://spor.ema.europa.eu/v1/lists/100000072049 200000017708}\">Valid - Renewed/Varied</span></p><p><b>statusDate</b>: 2022-06-28</p><p><b>holder</b>: <a href=\"Bundle-013-LantusSolostar-EE-FullProduct.html#Organization_LOC-100000869-Sanofi-Aventis-Deutchland\">Bundle: type = collection</a></p></div>"
      },
      "identifier" : [{
        "value" : "EU/1/00/134"
      }],
      "subject" : [{
        "reference" : "MedicinalProductDefinition/LantusSolostar-EE-MPD"
      }],
      "type" : {
        "coding" : [{
          "system" : "https://spor.ema.europa.eu/v1/lists/220000000060",
          "code" : "220000000061",
          "display" : "Marketing Authorisation"
        }]
      },
      "region" : [{
        "coding" : [{
          "system" : "https://spor.ema.europa.eu/v1/lists/100000000002",
          "code" : "100000000390",
          "display" : "European Union"
        }]
      }],
      "status" : {
        "coding" : [{
          "system" : "https://spor.ema.europa.eu/v1/lists/100000072049",
          "code" : "200000017708",
          "display" : "Valid - Renewed/Varied"
        }]
      },
      "statusDate" : "2022-06-28",
      "holder" : {
        "reference" : "Organization/LOC-100000869-Sanofi-Aventis-Deutchland"
      }
    }
  },
  {
    "fullUrl" : "https://hl7-eu.github.io/unicom-ig/branches/mpd-r4b/Organization-LOC-100000869-Sanofi-Aventis-Deutchland",
    "resource" : {
      "resourceType" : "Organization",
      "id" : "LOC-100000869-Sanofi-Aventis-Deutchland",
      "meta" : {
        "profile" : ["http://unicom-project.eu/fhir/StructureDefinition/PPLOrganization"]
      },
      "text" : {
        "status" : "generated",
        "div" : "<div xmlns=\"http://www.w3.org/1999/xhtml\"><a name=\"Organization_LOC-100000869-Sanofi-Aventis-Deutchland\"> </a><p class=\"res-header-id\"><b>Generated Narrative: Organization LOC-100000869-Sanofi-Aventis-Deutchland</b></p><a name=\"LOC-100000869-Sanofi-Aventis-Deutchland\"> </a><a name=\"hcLOC-100000869-Sanofi-Aventis-Deutchland\"> </a><a name=\"hcLOC-100000869-Sanofi-Aventis-Deutchland-en-US\"> </a><p><b>identifier</b>: <code>https://spor.ema.europa.eu/v1/locations</code>/LOC-100000869, <code>https://spor.ema.europa.eu/v1/organisations</code>/ORG-100001175</p><p><b>name</b>: Sanofi-Aventis Deutschland GmbH</p></div>"
      },
      "identifier" : [{
        "system" : "https://spor.ema.europa.eu/v1/locations",
        "value" : "LOC-100000869"
      },
      {
        "system" : "https://spor.ema.europa.eu/v1/organisations",
        "value" : "ORG-100001175"
      }],
      "name" : "Sanofi-Aventis Deutschland GmbH"
    }
  },
  {
    "fullUrl" : "https://hl7-eu.github.io/unicom-ig/branches/mpd-r4b/AdministrableProductDefinition-LantusSolostar-EE-APD",
    "resource" : {
      "resourceType" : "AdministrableProductDefinition",
      "id" : "LantusSolostar-EE-APD",
      "meta" : {
        "profile" : ["http://unicom-project.eu/fhir/StructureDefinition/PPLAdministrableProductDefinition"]
      },
      "text" : {
        "status" : "generated",
        "div" : "<div xmlns=\"http://www.w3.org/1999/xhtml\"><a name=\"AdministrableProductDefinition_LantusSolostar-EE-APD\"> </a><p class=\"res-header-id\"><b>Generated Narrative: AdministrableProductDefinition LantusSolostar-EE-APD</b></p><a name=\"LantusSolostar-EE-APD\"> </a><a name=\"hcLantusSolostar-EE-APD\"> </a><a name=\"hcLantusSolostar-EE-APD-en-US\"> </a><p><b>status</b>: Active</p><p><b>formOf</b>: <a href=\"Bundle-013-LantusSolostar-EE-FullProduct.html#MedicinalProductDefinition_LantusSolostar-EE-MPD\">Bundle: type = collection</a></p><p><b>administrableDoseForm</b>: <span title=\"Codes:{https://spor.ema.europa.eu/v1/lists/200000000004 100000073863}\">Solution for injection</span></p><p><b>unitOfPresentation</b>: <span title=\"Codes:{https://spor.ema.europa.eu/v1/lists/200000000014 200000002135}\">Pen</span></p><p><b>producedFrom</b>: <a href=\"Bundle-013-LantusSolostar-EE-FullProduct.html#ManufacturedItemDefinition_LantusSolostar-EE-MID\">Bundle: type = collection</a></p><h3>RouteOfAdministrations</h3><table class=\"grid\"><tr><td style=\"display: none\">-</td><td><b>Code</b></td></tr><tr><td style=\"display: none\">*</td><td><span title=\"Codes:{https://spor.ema.europa.eu/v1/lists/100000073345 100000073633}\">Subcutaneous use</span></td></tr></table></div>"
      },
      "status" : "active",
      "formOf" : [{
        "reference" : "MedicinalProductDefinition/LantusSolostar-EE-MPD"
      }],
      "administrableDoseForm" : {
        "coding" : [{
          "system" : "https://spor.ema.europa.eu/v1/lists/200000000004",
          "code" : "100000073863",
          "display" : "Solution for injection"
        }]
      },
      "unitOfPresentation" : {
        "coding" : [{
          "system" : "https://spor.ema.europa.eu/v1/lists/200000000014",
          "code" : "200000002135",
          "display" : "Pen"
        }]
      },
      "producedFrom" : [{
        "reference" : "ManufacturedItemDefinition/LantusSolostar-EE-MID"
      }],
      "routeOfAdministration" : [{
        "code" : {
          "coding" : [{
            "system" : "https://spor.ema.europa.eu/v1/lists/100000073345",
            "code" : "100000073633",
            "display" : "Subcutaneous use"
          }]
        }
      }]
    }
  },
  {
    "fullUrl" : "https://hl7-eu.github.io/unicom-ig/branches/mpd-r4b/ManufacturedItemDefinition-LantusSolostar-EE-MID",
    "resource" : {
      "resourceType" : "ManufacturedItemDefinition",
      "id" : "LantusSolostar-EE-MID",
      "meta" : {
        "profile" : ["http://unicom-project.eu/fhir/StructureDefinition/PPLManufacturedItemDefinition"]
      },
      "text" : {
        "status" : "generated",
        "div" : "<div xmlns=\"http://www.w3.org/1999/xhtml\"><a name=\"ManufacturedItemDefinition_LantusSolostar-EE-MID\"> </a><p class=\"res-header-id\"><b>Generated Narrative: ManufacturedItemDefinition LantusSolostar-EE-MID</b></p><a name=\"LantusSolostar-EE-MID\"> </a><a name=\"hcLantusSolostar-EE-MID\"> </a><a name=\"hcLantusSolostar-EE-MID-en-US\"> </a><p><b>status</b>: Active</p><p><b>manufacturedDoseForm</b>: <span title=\"Codes:{https://spor.ema.europa.eu/v1/lists/200000000004 100000073863}\">Solution for injection</span></p><p><b>unitOfPresentation</b>: <span title=\"Codes:{https://spor.ema.europa.eu/v1/lists/200000000014 200000002135}\">Pen</span></p></div>"
      },
      "status" : "active",
      "manufacturedDoseForm" : {
        "coding" : [{
          "system" : "https://spor.ema.europa.eu/v1/lists/200000000004",
          "code" : "100000073863",
          "display" : "Solution for injection"
        }]
      },
      "unitOfPresentation" : {
        "coding" : [{
          "system" : "https://spor.ema.europa.eu/v1/lists/200000000014",
          "code" : "200000002135",
          "display" : "Pen"
        }]
      }
    }
  },
  {
    "fullUrl" : "https://hl7-eu.github.io/unicom-ig/branches/mpd-r4b/Ingredient-LantusSolostar-EE-I",
    "resource" : {
      "resourceType" : "Ingredient",
      "id" : "LantusSolostar-EE-I",
      "meta" : {
        "profile" : ["http://unicom-project.eu/fhir/StructureDefinition/PPLIngredient"]
      },
      "text" : {
        "status" : "generated",
        "div" : "<div xmlns=\"http://www.w3.org/1999/xhtml\"><a name=\"Ingredient_LantusSolostar-EE-I\"> </a><p class=\"res-header-id\"><b>Generated Narrative: Ingredient LantusSolostar-EE-I</b></p><a name=\"LantusSolostar-EE-I\"> </a><a name=\"hcLantusSolostar-EE-I\"> </a><a name=\"hcLantusSolostar-EE-I-en-US\"> </a><p><b>status</b>: Active</p><p><b>for</b>: </p><ul><li><a href=\"Bundle-013-LantusSolostar-EE-FullProduct.html#MedicinalProductDefinition_LantusSolostar-EE-MPD\">Bundle: type = collection</a></li><li><a href=\"Bundle-013-LantusSolostar-EE-FullProduct.html#ManufacturedItemDefinition_LantusSolostar-EE-MID\">Bundle: type = collection</a></li><li><a href=\"Bundle-013-LantusSolostar-EE-FullProduct.html#AdministrableProductDefinition_LantusSolostar-EE-APD\">Bundle: type = collection</a></li></ul><p><b>role</b>: <span title=\"Codes:{https://spor.ema.europa.eu/v1/lists/100000072050 100000072072}\">Active</span></p><blockquote><p><b>substance</b></p><h3>Codes</h3><table class=\"grid\"><tr><td style=\"display: none\">-</td><td><b>Concept</b></td></tr><tr><td style=\"display: none\">*</td><td><span title=\"Codes:{https://spor.ema.europa.eu/v2/SubstanceDefinition 100000085460}\">Insulin glargine</span></td></tr></table><h3>Strengths</h3><table class=\"grid\"><tr><td style=\"display: none\">-</td><td><b>Concentration[x]</b></td></tr><tr><td style=\"display: none\">*</td><td>100 unit(s)<span style=\"background: LightGoldenRodYellow\"> (Details: Unit of Measurement EMA  code100000110756 = 'unit(s)')</span>/1 millilitre(s)<span style=\"background: LightGoldenRodYellow\"> (Details: Unit of Measurement EMA  code100000110662 = 'millilitre(s)')</span></td></tr></table></blockquote></div>"
      },
      "status" : "active",
      "for" : [{
        "reference" : "MedicinalProductDefinition/LantusSolostar-EE-MPD"
      },
      {
        "reference" : "ManufacturedItemDefinition/LantusSolostar-EE-MID"
      },
      {
        "reference" : "AdministrableProductDefinition/LantusSolostar-EE-APD"
      }],
      "role" : {
        "coding" : [{
          "system" : "https://spor.ema.europa.eu/v1/lists/100000072050",
          "code" : "100000072072",
          "display" : "Active"
        }]
      },
      "substance" : {
        "code" : {
          "concept" : {
            "coding" : [{
              "system" : "https://spor.ema.europa.eu/v2/SubstanceDefinition",
              "code" : "100000085460",
              "display" : "Insulin glargine"
            }]
          }
        },
        "strength" : [{
          "concentrationRatio" : {
            "numerator" : {
              "value" : 100,
              "unit" : "unit(s)",
              "system" : "https://spor.ema.europa.eu/v1/lists/100000110633",
              "code" : "100000110756"
            },
            "denominator" : {
              "value" : 1,
              "unit" : "millilitre(s)",
              "system" : "https://spor.ema.europa.eu/v1/lists/100000110633",
              "code" : "100000110662"
            }
          }
        }]
      }
    }
  },
  {
    "fullUrl" : "https://hl7-eu.github.io/unicom-ig/branches/mpd-r4b/PackagedProductDefinition-LantusSolostar-EE-PPD-1265778",
    "resource" : {
      "resourceType" : "PackagedProductDefinition",
      "id" : "LantusSolostar-EE-PPD-1265778",
      "meta" : {
        "profile" : ["http://unicom-project.eu/fhir/StructureDefinition/PPLPackagedProductDefinition"]
      },
      "text" : {
        "status" : "generated",
        "div" : "<div xmlns=\"http://www.w3.org/1999/xhtml\"><a name=\"PackagedProductDefinition_LantusSolostar-EE-PPD-1265778\"> </a><p class=\"res-header-id\"><b>Generated Narrative: PackagedProductDefinition LantusSolostar-EE-PPD-1265778</b></p><a name=\"LantusSolostar-EE-PPD-1265778\"> </a><a name=\"hcLantusSolostar-EE-PPD-1265778\"> </a><a name=\"hcLantusSolostar-EE-PPD-1265778-en-US\"> </a><p><b>identifier</b>: <code>http://ema.europa.eu/example/pcid</code>/EE-100000869-3157-1265778</p><p><b>packageFor</b>: <a href=\"Bundle-013-LantusSolostar-EE-FullProduct.html#MedicinalProductDefinition_LantusSolostar-EE-MPD\">Bundle: type = collection</a></p><p><b>containedItemQuantity</b>: 5 Pen<span style=\"background: LightGoldenRodYellow\"> (Details: Unit of Presentation EMA  code200000002135 = 'Pen')</span></p><p><b>description</b>: </p><div><p>Lantus SoloStar 100 ühikut/ml süstelahus pen-süstlis. I tüüpi värvitust klaasist kolbampull musta värvi kolvi (broombutüülkumm), äärikkattega\n(alumiinium) ja korgiga (broombutüülkumm või polüisopreenlaminaat ja broombutüülkumm);\nsisaldab 3 ml süstelahust. Kolbampull on paigaldatud mittetäidetavasse pen-süstlisse. Nõelad ei sisaldu pakendis.\nPakendis on 5 pen-süstlit.</p>\n</div><h3>MarketingStatuses</h3><table class=\"grid\"><tr><td style=\"display: none\">-</td><td><b>Country</b></td><td><b>Status</b></td></tr><tr><td style=\"display: none\">*</td><td><span title=\"Codes:{https://spor.ema.europa.eu/v1/lists/100000000002 100000000388}\">Republic of Estonia</span></td><td><span title=\"Codes:{https://spor.ema.europa.eu/v1/lists/100000072052 100000072083}\">Marketed</span></td></tr></table><blockquote><p><b>packaging</b></p><p><b>type</b>: <span title=\"Codes:{https://spor.ema.europa.eu/v1/lists/100000073346 100000073498}\">Box</span></p><p><b>quantity</b>: 1</p><p><b>material</b>: <span title=\"Codes:{https://spor.ema.europa.eu/v1/lists/200000003199 200000003529}\">Cardboard</span></p><blockquote><p><b>packaging</b></p></blockquote></blockquote></div>"
      },
      "identifier" : [{
        "system" : "http://ema.europa.eu/example/pcid",
        "value" : "EE-100000869-3157-1265778"
      }],
      "packageFor" : [{
        "reference" : "MedicinalProductDefinition/LantusSolostar-EE-MPD"
      }],
      "containedItemQuantity" : [{
        "value" : 5,
        "unit" : "Pen",
        "system" : "https://spor.ema.europa.eu/v1/lists/200000000014",
        "code" : "200000002135"
      }],
      "description" : "Lantus SoloStar 100 ühikut/ml süstelahus pen-süstlis. I tüüpi värvitust klaasist kolbampull musta värvi kolvi (broombutüülkumm), äärikkattega\n(alumiinium) ja korgiga (broombutüülkumm või polüisopreenlaminaat ja broombutüülkumm);\nsisaldab 3 ml süstelahust. Kolbampull on paigaldatud mittetäidetavasse pen-süstlisse. Nõelad ei sisaldu pakendis.\nPakendis on 5 pen-süstlit.",
      "marketingStatus" : [{
        "country" : {
          "coding" : [{
            "system" : "https://spor.ema.europa.eu/v1/lists/100000000002",
            "code" : "100000000388",
            "display" : "Republic of Estonia"
          }]
        },
        "status" : {
          "coding" : [{
            "system" : "https://spor.ema.europa.eu/v1/lists/100000072052",
            "code" : "100000072083",
            "display" : "Marketed"
          }]
        }
      }],
      "packaging" : {
        "type" : {
          "coding" : [{
            "system" : "https://spor.ema.europa.eu/v1/lists/100000073346",
            "code" : "100000073498",
            "display" : "Box"
          }]
        },
        "quantity" : 1,
        "material" : [{
          "coding" : [{
            "system" : "https://spor.ema.europa.eu/v1/lists/200000003199",
            "code" : "200000003529",
            "display" : "Cardboard"
          }]
        }],
        "packaging" : [{
          "type" : {
            "coding" : [{
              "system" : "https://spor.ema.europa.eu/v1/lists/100000073346",
              "code" : "100000073543",
              "display" : "Pre-filled pen"
            }]
          },
          "quantity" : 5,
          "containedItem" : [{
            "item" : {
              "reference" : {
                "reference" : "ManufacturedItemDefinition/LantusSolostar-EE-MID"
              }
            },
            "amount" : {
              "value" : 3,
              "unit" : "millilitre(s)",
              "system" : "https://spor.ema.europa.eu/v1/lists/100000110633",
              "code" : "100000110662"
            }
          }]
        }]
      }
    }
  }]
}