<?xml version="1.0" encoding="UTF-8"?>

<Bundle xmlns="http://hl7.org/fhir">
  <id value="004-Cefuroxime-MIP-1500mg-EE-FullProduct"/>
  <type value="collection"/>
  <entry>
    <fullUrl value="https://hl7-eu.github.io/unicom-ig/branches/mpd-r4b/MedicinalProductDefinition-Cefuroxime-MIP-1500mg-EE-MPD"/>
    <resource>
      <MedicinalProductDefinition>
        <id value="Cefuroxime-MIP-1500mg-EE-MPD"/>
        <meta>
          <profile value="http://unicom-project.eu/fhir/StructureDefinition/PPLMedicinalProductDefinition"/>
        </meta>
        <text>
          <status value="generated"/><div xmlns="http://www.w3.org/1999/xhtml"><a name="MedicinalProductDefinition_Cefuroxime-MIP-1500mg-EE-MPD"> </a><p class="res-header-id"><b>Generated Narrative: MedicinalProductDefinition Cefuroxime-MIP-1500mg-EE-MPD</b></p><a name="Cefuroxime-MIP-1500mg-EE-MPD"> </a><a name="hcCefuroxime-MIP-1500mg-EE-MPD"> </a><a name="hcCefuroxime-MIP-1500mg-EE-MPD-en-US"> </a><p><b>identifier</b>: <code>http://ema.europa.eu/fhir/mpId</code>/EE-100009199-27834, <code>http://ema.europa.eu/fhir/pmsId</code>/EE0000002</p><p><b>domain</b>: <span title="Codes:{https://spor.ema.europa.eu/v1/lists/100000000004 100000000012}">Human use</span></p><p><b>status</b>: <span title="Codes:{https://spor.ema.europa.eu/v1/lists/200000005003 200000005004}">Current</span></p><p><b>combinedPharmaceuticalDoseForm</b>: <span title="Codes:{https://spor.ema.europa.eu/v1/lists/200000000004 100000116186}">Powder for solution for injection/infusion</span></p><p><b>legalStatusOfSupply</b>: <span title="Codes:{https://spor.ema.europa.eu/v1/lists/100000072051 100000072084}">Medicinal Product subject to medical prescription</span></p><p><b>classification</b>: <span title="Codes:{https://spor.ema.europa.eu/v1/lists/100000093533 100000096183}">Cefuroxime</span>, <span title="Codes:{http://www.whocc.no/atc J01DC02}">cefuroxime</span></p><blockquote><p><b>name</b></p><p><b>productName</b>: Cefuroxime MIP 1500 mg, süste-/infusioonilahuse pulber</p><blockquote><p><b>part</b></p><p><b>part</b>: Cefuroxime MIP</p><p><b>type</b>: <span title="Codes:{https://spor.ema.europa.eu/v1/lists/220000000000 220000000002}">Invented name part</span></p></blockquote><blockquote><p><b>part</b></p><p><b>part</b>: 1500 MG</p><p><b>type</b>: <span title="Codes:{https://spor.ema.europa.eu/v1/lists/220000000000 220000000004}">Strength part</span></p></blockquote><h3>Usages</h3><table class="grid"><tr><td style="display: none">-</td><td><b>Country</b></td><td><b>Language</b></td></tr><tr><td style="display: none">*</td><td><span title="Codes:{https://spor.ema.europa.eu/v1/lists/100000000002 100000000388}">Republic of Estonia</span></td><td><span title="Codes:{urn:ietf:bcp:47 et}">Estonian</span></td></tr></table></blockquote></div>
        </text>
        <identifier>
          <system value="http://ema.europa.eu/fhir/mpId"/>
          <value value="EE-100009199-27834"/>
        </identifier>
        <identifier>
          <system value="http://ema.europa.eu/fhir/pmsId"/>
          <value value="EE0000002"/>
        </identifier>
        <domain>
          <coding>
            <system value="https://spor.ema.europa.eu/v1/lists/100000000004"/>
            <code value="100000000012"/>
            <display value="Human use"/>
          </coding>
        </domain>
        <status>
          <coding>
            <system value="https://spor.ema.europa.eu/v1/lists/200000005003"/>
            <code value="200000005004"/>
            <display value="Current"/>
          </coding>
        </status>
        <combinedPharmaceuticalDoseForm>
          <coding>
            <system value="https://spor.ema.europa.eu/v1/lists/200000000004"/>
            <code value="100000116186"/>
            <display value="Powder for solution for injection/infusion"/>
          </coding>
        </combinedPharmaceuticalDoseForm>
        <legalStatusOfSupply>
          <coding>
            <system value="https://spor.ema.europa.eu/v1/lists/100000072051"/>
            <code value="100000072084"/>
            <display value="Medicinal Product subject to medical prescription"/>
          </coding>
        </legalStatusOfSupply>
        <classification>
          <coding>
            <system value="https://spor.ema.europa.eu/v1/lists/100000093533"/>
            <code value="100000096183"/>
            <display value="Cefuroxime"/>
          </coding>
        </classification>
        <classification>
          <coding>
            <system value="http://www.whocc.no/atc"/>
            <code value="J01DC02"/>
            <display value="cefuroxime"/>
          </coding>
        </classification>
        <name>
          <productName value="Cefuroxime MIP 1500 mg, süste-/infusioonilahuse pulber"/>
          <part>
            <part value="Cefuroxime MIP"/>
            <type>
              <coding>
                <system value="https://spor.ema.europa.eu/v1/lists/220000000000"/>
                <code value="220000000002"/>
                <display value="Invented name part"/>
              </coding>
            </type>
          </part>
          <part>
            <part value="1500 MG"/>
            <type>
              <coding>
                <system value="https://spor.ema.europa.eu/v1/lists/220000000000"/>
                <code value="220000000004"/>
                <display value="Strength part"/>
              </coding>
            </type>
          </part>
          <usage>
            <country>
              <coding>
                <system value="https://spor.ema.europa.eu/v1/lists/100000000002"/>
                <code value="100000000388"/>
                <display value="Republic of Estonia"/>
              </coding>
            </country>
            <language>
              <coding>
                <system value="urn:ietf:bcp:47"/>
                <code value="et"/>
                <display value="Estonian"/>
              </coding>
            </language>
          </usage>
        </name>
      </MedicinalProductDefinition>
    </resource>
  </entry>
  <entry>
    <fullUrl value="https://hl7-eu.github.io/unicom-ig/branches/mpd-r4b/RegulatedAuthorization-Cefuroxime-MIP-1500mg-EE-RA"/>
    <resource>
      <RegulatedAuthorization>
        <id value="Cefuroxime-MIP-1500mg-EE-RA"/>
        <meta>
          <profile value="http://unicom-project.eu/fhir/StructureDefinition/PPLRegulatedAuthorization"/>
        </meta>
        <text>
          <status value="generated"/><div xmlns="http://www.w3.org/1999/xhtml"><a name="RegulatedAuthorization_Cefuroxime-MIP-1500mg-EE-RA"> </a><p class="res-header-id"><b>Generated Narrative: RegulatedAuthorization Cefuroxime-MIP-1500mg-EE-RA</b></p><a name="Cefuroxime-MIP-1500mg-EE-RA"> </a><a name="hcCefuroxime-MIP-1500mg-EE-RA"> </a><a name="hcCefuroxime-MIP-1500mg-EE-RA-en-US"> </a><p><b>identifier</b>: 805813</p><p><b>subject</b>: <a href="MedicinalProductDefinition-Cefuroxime-MIP-1500mg-EE-MPD.html">MedicinalProductDefinition: identifier = http://ema.europa.eu/fhir/mpId#EE-100009199-27834,http://ema.europa.eu/fhir/pmsId#EE0000002; domain = Human use; status = Current; combinedPharmaceuticalDoseForm = Powder for solution for injection/infusion; legalStatusOfSupply = Medicinal Product subject to medical prescription; classification = Cefuroxime,cefuroxime</a></p><p><b>type</b>: <span title="Codes:{https://spor.ema.europa.eu/v1/lists/220000000060 220000000061}">Marketing Authorisation</span></p><p><b>region</b>: <span title="Codes:{https://spor.ema.europa.eu/v1/lists/100000000002 100000000388}">Republic of Estonia</span></p><p><b>status</b>: <span title="Codes:{https://spor.ema.europa.eu/v1/lists/100000072049 200000017708}">Valid - Renewed/Varied</span></p><p><b>statusDate</b>: 2017-12-06</p><p><b>holder</b>: <a href="Organization-LOC-100009199-Mip.html">Organization Mip Pharma GmbH</a></p></div>
        </text>
        <identifier>
          <value value="805813"/>
        </identifier>
        <subject>
          <reference value="MedicinalProductDefinition/Cefuroxime-MIP-1500mg-EE-MPD"/>
        </subject>
        <type>
          <coding>
            <system value="https://spor.ema.europa.eu/v1/lists/220000000060"/>
            <code value="220000000061"/>
            <display value="Marketing Authorisation"/>
          </coding>
        </type>
        <region>
          <coding>
            <system value="https://spor.ema.europa.eu/v1/lists/100000000002"/>
            <code value="100000000388"/>
            <display value="Republic of Estonia"/>
          </coding>
        </region>
        <status>
          <coding>
            <system value="https://spor.ema.europa.eu/v1/lists/100000072049"/>
            <code value="200000017708"/>
            <display value="Valid - Renewed/Varied"/>
          </coding>
        </status>
        <statusDate value="2017-12-06"/>
        <holder>
          <reference value="Organization/LOC-100009199-Mip"/>
        </holder>
      </RegulatedAuthorization>
    </resource>
  </entry>
  <entry>
    <fullUrl value="https://hl7-eu.github.io/unicom-ig/branches/mpd-r4b/Organization-LOC-100009199-Mip"/>
    <resource>
      <Organization>
        <id value="LOC-100009199-Mip"/>
        <meta>
          <profile value="http://unicom-project.eu/fhir/StructureDefinition/PPLOrganization"/>
        </meta>
        <text>
          <status value="generated"/><div xmlns="http://www.w3.org/1999/xhtml"><a name="Organization_LOC-100009199-Mip"> </a><p class="res-header-id"><b>Generated Narrative: Organization LOC-100009199-Mip</b></p><a name="LOC-100009199-Mip"> </a><a name="hcLOC-100009199-Mip"> </a><a name="hcLOC-100009199-Mip-en-US"> </a><p><b>identifier</b>: <code>https://spor.ema.europa.eu/v1/locations</code>/LOC-100009199</p><p><b>name</b>: Mip Pharma GmbH</p></div>
        </text>
        <identifier>
          <system value="https://spor.ema.europa.eu/v1/locations"/>
          <value value="LOC-100009199"/>
        </identifier>
        <name value="Mip Pharma GmbH"/>
      </Organization>
    </resource>
  </entry>
  <entry>
    <fullUrl value="https://hl7-eu.github.io/unicom-ig/branches/mpd-r4b/AdministrableProductDefinition-Cefuroxime-MIP-1500mg-EE-APD"/>
    <resource>
      <AdministrableProductDefinition>
        <id value="Cefuroxime-MIP-1500mg-EE-APD"/>
        <meta>
          <profile value="http://unicom-project.eu/fhir/StructureDefinition/PPLAdministrableProductDefinition"/>
        </meta>
        <text>
          <status value="generated"/><div xmlns="http://www.w3.org/1999/xhtml"><a name="AdministrableProductDefinition_Cefuroxime-MIP-1500mg-EE-APD"> </a><p class="res-header-id"><b>Generated Narrative: AdministrableProductDefinition Cefuroxime-MIP-1500mg-EE-APD</b></p><a name="Cefuroxime-MIP-1500mg-EE-APD"> </a><a name="hcCefuroxime-MIP-1500mg-EE-APD"> </a><a name="hcCefuroxime-MIP-1500mg-EE-APD-en-US"> </a><p><b>status</b>: Active</p><p><b>formOf</b>: <a href="MedicinalProductDefinition-Cefuroxime-MIP-1500mg-EE-MPD.html">MedicinalProductDefinition: identifier = http://ema.europa.eu/fhir/mpId#EE-100009199-27834,http://ema.europa.eu/fhir/pmsId#EE0000002; domain = Human use; status = Current; combinedPharmaceuticalDoseForm = Powder for solution for injection/infusion; legalStatusOfSupply = Medicinal Product subject to medical prescription; classification = Cefuroxime,cefuroxime</a></p><p><b>administrableDoseForm</b>: <span title="Codes:{https://spor.ema.europa.eu/v1/lists/200000000004 100000074038}">Solution for injection/infusion</span></p><p><b>unitOfPresentation</b>: <span title="Codes:{https://spor.ema.europa.eu/v1/lists/200000000014 200000002158}">Vial</span></p><p><b>producedFrom</b>: <a href="ManufacturedItemDefinition-Cefuroxime-MIP-1500mg-EE-MID.html">ManufacturedItemDefinition: status = active; manufacturedDoseForm = Powder for solution for injection/infusion; unitOfPresentation = Vial</a></p><h3>RouteOfAdministrations</h3><table class="grid"><tr><td style="display: none">-</td><td><b>Code</b></td></tr><tr><td style="display: none">*</td><td><span title="Codes:{https://spor.ema.europa.eu/v1/lists/100000073345 100000073600}">Intramuscular use</span></td></tr></table></div>
        </text>
        <status value="active"/>
        <formOf>
          <reference value="MedicinalProductDefinition/Cefuroxime-MIP-1500mg-EE-MPD"/>
        </formOf>
        <administrableDoseForm>
          <coding>
            <system value="https://spor.ema.europa.eu/v1/lists/200000000004"/>
            <code value="100000074038"/>
            <display value="Solution for injection/infusion"/>
          </coding>
        </administrableDoseForm>
        <unitOfPresentation>
          <coding>
            <system value="https://spor.ema.europa.eu/v1/lists/200000000014"/>
            <code value="200000002158"/>
            <display value="Vial"/>
          </coding>
        </unitOfPresentation>
        <producedFrom>
          <reference value="ManufacturedItemDefinition/Cefuroxime-MIP-1500mg-EE-MID"/>
        </producedFrom>
        <routeOfAdministration>
          <code>
            <coding>
              <system value="https://spor.ema.europa.eu/v1/lists/100000073345"/>
              <code value="100000073600"/>
              <display value="Intramuscular use"/>
            </coding>
          </code>
        </routeOfAdministration>
      </AdministrableProductDefinition>
    </resource>
  </entry>
  <entry>
    <fullUrl value="https://hl7-eu.github.io/unicom-ig/branches/mpd-r4b/ManufacturedItemDefinition-Cefuroxime-MIP-1500mg-EE-MID"/>
    <resource>
      <ManufacturedItemDefinition>
        <id value="Cefuroxime-MIP-1500mg-EE-MID"/>
        <meta>
          <profile value="http://unicom-project.eu/fhir/StructureDefinition/PPLManufacturedItemDefinition"/>
        </meta>
        <text>
          <status value="generated"/><div xmlns="http://www.w3.org/1999/xhtml"><a name="ManufacturedItemDefinition_Cefuroxime-MIP-1500mg-EE-MID"> </a><p class="res-header-id"><b>Generated Narrative: ManufacturedItemDefinition Cefuroxime-MIP-1500mg-EE-MID</b></p><a name="Cefuroxime-MIP-1500mg-EE-MID"> </a><a name="hcCefuroxime-MIP-1500mg-EE-MID"> </a><a name="hcCefuroxime-MIP-1500mg-EE-MID-en-US"> </a><p><b>status</b>: Active</p><p><b>manufacturedDoseForm</b>: <span title="Codes:{https://spor.ema.europa.eu/v1/lists/200000000004 100000116186}">Powder for solution for injection/infusion</span></p><p><b>unitOfPresentation</b>: <span title="Codes:{https://spor.ema.europa.eu/v1/lists/200000000014 200000002158}">Vial</span></p></div>
        </text>
        <status value="active"/>
        <manufacturedDoseForm>
          <coding>
            <system value="https://spor.ema.europa.eu/v1/lists/200000000004"/>
            <code value="100000116186"/>
            <display value="Powder for solution for injection/infusion"/>
          </coding>
        </manufacturedDoseForm>
        <unitOfPresentation>
          <coding>
            <system value="https://spor.ema.europa.eu/v1/lists/200000000014"/>
            <code value="200000002158"/>
            <display value="Vial"/>
          </coding>
        </unitOfPresentation>
      </ManufacturedItemDefinition>
    </resource>
  </entry>
  <entry>
    <fullUrl value="https://hl7-eu.github.io/unicom-ig/branches/mpd-r4b/Ingredient-Cefuroxime-MIP-1500mg-EE-I"/>
    <resource>
      <Ingredient>
        <id value="Cefuroxime-MIP-1500mg-EE-I"/>
        <text>
          <status value="generated"/><div xmlns="http://www.w3.org/1999/xhtml"><a name="Ingredient_Cefuroxime-MIP-1500mg-EE-I"> </a><p class="res-header-id"><b>Generated Narrative: Ingredient Cefuroxime-MIP-1500mg-EE-I</b></p><a name="Cefuroxime-MIP-1500mg-EE-I"> </a><a name="hcCefuroxime-MIP-1500mg-EE-I"> </a><a name="hcCefuroxime-MIP-1500mg-EE-I-en-US"> </a><p><b>status</b>: Active</p><p><b>for</b>: </p><ul><li><a href="MedicinalProductDefinition-Cefuroxime-MIP-1500mg-EE-MPD.html">MedicinalProductDefinition: identifier = http://ema.europa.eu/fhir/mpId#EE-100009199-27834,http://ema.europa.eu/fhir/pmsId#EE0000002; domain = Human use; status = Current; combinedPharmaceuticalDoseForm = Powder for solution for injection/infusion; legalStatusOfSupply = Medicinal Product subject to medical prescription; classification = Cefuroxime,cefuroxime</a></li><li><a href="ManufacturedItemDefinition-Cefuroxime-MIP-1500mg-EE-MID.html">ManufacturedItemDefinition: status = active; manufacturedDoseForm = Powder for solution for injection/infusion; unitOfPresentation = Vial</a></li><li><a href="AdministrableProductDefinition-Cefuroxime-MIP-1500mg-EE-APD.html">AdministrableProductDefinition: status = active; administrableDoseForm = Solution for injection/infusion; unitOfPresentation = Vial</a></li></ul><p><b>role</b>: <span title="Codes:{https://spor.ema.europa.eu/v1/lists/100000072050 100000072072}">Active</span></p><blockquote><p><b>substance</b></p><h3>Codes</h3><table class="grid"><tr><td style="display: none">-</td><td><b>Concept</b></td></tr><tr><td style="display: none">*</td><td><span title="Codes:{https://spor.ema.europa.eu/v2/SubstanceDefinition 100000091436}">CEFUROXIME SODIUM</span></td></tr></table><blockquote><p><b>strength</b></p><p><b>presentation</b>: 1578 milligram(s)<span style="background: LightGoldenRodYellow"> (Details: Unit of Measurement EMA  code100000110655 = 'milligram(s)')</span>/1 Vial<span style="background: LightGoldenRodYellow"> (Details: Unit of Presentation EMA  code200000002158 = 'Vial')</span></p><blockquote><p><b>referenceStrength</b></p><h3>Substances</h3><table class="grid"><tr><td style="display: none">-</td><td><b>Concept</b></td></tr><tr><td style="display: none">*</td><td><span title="Codes:{https://spor.ema.europa.eu/v2/SubstanceDefinition 100000092667}">CEFUROXIME</span></td></tr></table><p><b>strength</b>: 1500 milligram(s)<span style="background: LightGoldenRodYellow"> (Details: Unit of Measurement EMA  code100000110655 = 'milligram(s)')</span>/1 Vial<span style="background: LightGoldenRodYellow"> (Details: Unit of Presentation EMA  code200000002158 = 'Vial')</span></p></blockquote></blockquote></blockquote></div>
        </text>
        <status value="active"/>
        <for>
          <reference value="MedicinalProductDefinition/Cefuroxime-MIP-1500mg-EE-MPD"/>
        </for>
        <for>
          <reference value="ManufacturedItemDefinition/Cefuroxime-MIP-1500mg-EE-MID"/>
        </for>
        <for>
          <reference value="AdministrableProductDefinition/Cefuroxime-MIP-1500mg-EE-APD"/>
        </for>
        <role>
          <coding>
            <system value="https://spor.ema.europa.eu/v1/lists/100000072050"/>
            <code value="100000072072"/>
            <display value="Active"/>
          </coding>
        </role>
        <substance>
          <code>
            <concept>
              <coding>
                <system value="https://spor.ema.europa.eu/v2/SubstanceDefinition"/>
                <code value="100000091436"/>
                <display value="CEFUROXIME SODIUM"/>
              </coding>
            </concept>
          </code>
          <strength>
            <presentationRatio>
              <numerator>
                <value value="1578"/>
                <unit value="milligram(s)"/>
                <system value="https://spor.ema.europa.eu/v1/lists/100000110633"/>
                <code value="100000110655"/>
              </numerator>
              <denominator>
                <value value="1"/>
                <unit value="Vial"/>
                <system value="https://spor.ema.europa.eu/v1/lists/200000000014"/>
                <code value="200000002158"/>
              </denominator>
            </presentationRatio>
            <referenceStrength>
              <substance>
                <concept>
                  <coding>
                    <system value="https://spor.ema.europa.eu/v2/SubstanceDefinition"/>
                    <code value="100000092667"/>
                    <display value="CEFUROXIME"/>
                  </coding>
                </concept>
              </substance>
              <strengthRatio>
                <numerator>
                  <value value="1500"/>
                  <unit value="milligram(s)"/>
                  <system value="https://spor.ema.europa.eu/v1/lists/100000110633"/>
                  <code value="100000110655"/>
                </numerator>
                <denominator>
                  <value value="1"/>
                  <unit value="Vial"/>
                  <system value="https://spor.ema.europa.eu/v1/lists/200000000014"/>
                  <code value="200000002158"/>
                </denominator>
              </strengthRatio>
            </referenceStrength>
          </strength>
        </substance>
      </Ingredient>
    </resource>
  </entry>
  <entry>
    <fullUrl value="https://hl7-eu.github.io/unicom-ig/branches/mpd-r4b/PackagedProductDefinition-Cefuroxime-MIP-1500mg-EE-PPD-1529940"/>
    <resource>
      <PackagedProductDefinition>
        <id value="Cefuroxime-MIP-1500mg-EE-PPD-1529940"/>
        <meta>
          <profile value="http://unicom-project.eu/fhir/StructureDefinition/PPLPackagedProductDefinition"/>
        </meta>
        <text>
          <status value="generated"/><div xmlns="http://www.w3.org/1999/xhtml"><a name="PackagedProductDefinition_Cefuroxime-MIP-1500mg-EE-PPD-1529940"> </a><p class="res-header-id"><b>Generated Narrative: PackagedProductDefinition Cefuroxime-MIP-1500mg-EE-PPD-1529940</b></p><a name="Cefuroxime-MIP-1500mg-EE-PPD-1529940"> </a><a name="hcCefuroxime-MIP-1500mg-EE-PPD-1529940"> </a><a name="hcCefuroxime-MIP-1500mg-EE-PPD-1529940-en-US"> </a><p><b>identifier</b>: <code>http://ema.europa.eu/example/pcid</code>/EE-100009199-27834-1529940</p><p><b>packageFor</b>: <a href="MedicinalProductDefinition-Cefuroxime-MIP-1500mg-EE-MPD.html">MedicinalProductDefinition: identifier = http://ema.europa.eu/fhir/mpId#EE-100009199-27834,http://ema.europa.eu/fhir/pmsId#EE0000002; domain = Human use; status = Current; combinedPharmaceuticalDoseForm = Powder for solution for injection/infusion; legalStatusOfSupply = Medicinal Product subject to medical prescription; classification = Cefuroxime,cefuroxime</a></p><p><b>containedItemQuantity</b>: 1 vial<span style="background: LightGoldenRodYellow"> (Details: Unit of Presentation EMA  code200000002158 = 'Vial')</span></p><p><b>description</b>: </p><div><p>I tüüpi klaasist viaal, mis on suletud klorobutüülkummist korgi ning flip-off kattega, 1 viaal</p>
</div><h3>MarketingStatuses</h3><table class="grid"><tr><td style="display: none">-</td><td><b>Country</b></td><td><b>Status</b></td></tr><tr><td style="display: none">*</td><td><span title="Codes:{https://spor.ema.europa.eu/v1/lists/100000000002 100000000388}">Republic of Estonia</span></td><td><span title="Codes:{https://spor.ema.europa.eu/v1/lists/100000072052 100000072083}">Marketed</span></td></tr></table><blockquote><p><b>packaging</b></p><p><b>type</b>: <span title="Codes:{https://spor.ema.europa.eu/v1/lists/100000073346 100000073498}">Box</span></p><p><b>quantity</b>: 1</p><p><b>material</b>: <span title="Codes:{https://spor.ema.europa.eu/v1/lists/200000003199 200000003529}">Cardboard</span></p><blockquote><p><b>packaging</b></p></blockquote></blockquote></div>
        </text>
        <identifier>
          <system value="http://ema.europa.eu/example/pcid"/>
          <value value="EE-100009199-27834-1529940"/>
        </identifier>
        <packageFor>
          <reference value="MedicinalProductDefinition/Cefuroxime-MIP-1500mg-EE-MPD"/>
        </packageFor>
        <containedItemQuantity>
          <value value="1"/>
          <unit value="vial"/>
          <system value="https://spor.ema.europa.eu/v1/lists/200000000014"/>
          <code value="200000002158"/>
        </containedItemQuantity>
        <description value="I tüüpi klaasist viaal, mis on suletud klorobutüülkummist korgi ning flip-off kattega, 1 viaal"/>
        <marketingStatus>
          <country>
            <coding>
              <system value="https://spor.ema.europa.eu/v1/lists/100000000002"/>
              <code value="100000000388"/>
              <display value="Republic of Estonia"/>
            </coding>
          </country>
          <status>
            <coding>
              <system value="https://spor.ema.europa.eu/v1/lists/100000072052"/>
              <code value="100000072083"/>
              <display value="Marketed"/>
            </coding>
          </status>
        </marketingStatus>
        <packaging>
          <type>
            <coding>
              <system value="https://spor.ema.europa.eu/v1/lists/100000073346"/>
              <code value="100000073498"/>
              <display value="Box"/>
            </coding>
          </type>
          <quantity value="1"/>
          <material>
            <coding>
              <system value="https://spor.ema.europa.eu/v1/lists/200000003199"/>
              <code value="200000003529"/>
              <display value="Cardboard"/>
            </coding>
          </material>
          <packaging>
            <type>
              <coding>
                <system value="https://spor.ema.europa.eu/v1/lists/100000073346"/>
                <code value="100000073563"/>
                <display value="vial"/>
              </coding>
            </type>
            <quantity value="1"/>
            <material>
              <coding>
                <system value="https://spor.ema.europa.eu/v1/lists/200000003199"/>
                <code value="200000003204"/>
                <display value="Glass type I"/>
              </coding>
            </material>
            <containedItem>
              <item>
                <reference>
                  <reference value="ManufacturedItemDefinition/Cefuroxime-MIP-1500mg-EE-MID"/>
                </reference>
              </item>
              <amount>
                <value value="1"/>
              </amount>
            </containedItem>
          </packaging>
        </packaging>
      </PackagedProductDefinition>
    </resource>
  </entry>
  <entry>
    <fullUrl value="https://hl7-eu.github.io/unicom-ig/branches/mpd-r4b/PackagedProductDefinition-Cefuroxime-MIP-1500mg-EE-PPD-1529962"/>
    <resource>
      <PackagedProductDefinition>
        <id value="Cefuroxime-MIP-1500mg-EE-PPD-1529962"/>
        <meta>
          <profile value="http://unicom-project.eu/fhir/StructureDefinition/PPLPackagedProductDefinition"/>
        </meta>
        <text>
          <status value="generated"/><div xmlns="http://www.w3.org/1999/xhtml"><a name="PackagedProductDefinition_Cefuroxime-MIP-1500mg-EE-PPD-1529962"> </a><p class="res-header-id"><b>Generated Narrative: PackagedProductDefinition Cefuroxime-MIP-1500mg-EE-PPD-1529962</b></p><a name="Cefuroxime-MIP-1500mg-EE-PPD-1529962"> </a><a name="hcCefuroxime-MIP-1500mg-EE-PPD-1529962"> </a><a name="hcCefuroxime-MIP-1500mg-EE-PPD-1529962-en-US"> </a><p><b>identifier</b>: <code>http://ema.europa.eu/example/pcid</code>/EE-100009199-27834-1529962</p><p><b>packageFor</b>: <a href="MedicinalProductDefinition-Cefuroxime-MIP-1500mg-EE-MPD.html">MedicinalProductDefinition: identifier = http://ema.europa.eu/fhir/mpId#EE-100009199-27834,http://ema.europa.eu/fhir/pmsId#EE0000002; domain = Human use; status = Current; combinedPharmaceuticalDoseForm = Powder for solution for injection/infusion; legalStatusOfSupply = Medicinal Product subject to medical prescription; classification = Cefuroxime,cefuroxime</a></p><p><b>containedItemQuantity</b>: 10 Vial<span style="background: LightGoldenRodYellow"> (Details: Unit of Presentation EMA  code200000002158 = 'Vial')</span></p><p><b>description</b>: </p><div><p>I tüüpi klaasist viaal, mis on suletud klorobutüülkummist korgi ning flip-off kattega, 10 viaali</p>
</div><h3>MarketingStatuses</h3><table class="grid"><tr><td style="display: none">-</td><td><b>Country</b></td><td><b>Status</b></td></tr><tr><td style="display: none">*</td><td><span title="Codes:{https://spor.ema.europa.eu/v1/lists/100000000002 100000000388}">Republic of Estonia</span></td><td><span title="Codes:{https://spor.ema.europa.eu/v1/lists/100000072052 100000072083}">Marketed</span></td></tr></table><blockquote><p><b>packaging</b></p><p><b>type</b>: <span title="Codes:{https://spor.ema.europa.eu/v1/lists/100000073346 100000073498}">Box</span></p><p><b>quantity</b>: 1</p><p><b>material</b>: <span title="Codes:{https://spor.ema.europa.eu/v1/lists/200000003199 200000003529}">Cardboard</span></p><blockquote><p><b>packaging</b></p></blockquote></blockquote></div>
        </text>
        <identifier>
          <system value="http://ema.europa.eu/example/pcid"/>
          <value value="EE-100009199-27834-1529962"/>
        </identifier>
        <packageFor>
          <reference value="MedicinalProductDefinition/Cefuroxime-MIP-1500mg-EE-MPD"/>
        </packageFor>
        <containedItemQuantity>
          <value value="10"/>
          <unit value="Vial"/>
          <system value="https://spor.ema.europa.eu/v1/lists/200000000014"/>
          <code value="200000002158"/>
        </containedItemQuantity>
        <description value="I tüüpi klaasist viaal, mis on suletud klorobutüülkummist korgi ning flip-off kattega, 10 viaali"/>
        <marketingStatus>
          <country>
            <coding>
              <system value="https://spor.ema.europa.eu/v1/lists/100000000002"/>
              <code value="100000000388"/>
              <display value="Republic of Estonia"/>
            </coding>
          </country>
          <status>
            <coding>
              <system value="https://spor.ema.europa.eu/v1/lists/100000072052"/>
              <code value="100000072083"/>
              <display value="Marketed"/>
            </coding>
          </status>
        </marketingStatus>
        <packaging>
          <type>
            <coding>
              <system value="https://spor.ema.europa.eu/v1/lists/100000073346"/>
              <code value="100000073498"/>
              <display value="Box"/>
            </coding>
          </type>
          <quantity value="1"/>
          <material>
            <coding>
              <system value="https://spor.ema.europa.eu/v1/lists/200000003199"/>
              <code value="200000003529"/>
              <display value="Cardboard"/>
            </coding>
          </material>
          <packaging>
            <type>
              <coding>
                <system value="https://spor.ema.europa.eu/v1/lists/100000073346"/>
                <code value="100000073563"/>
                <display value="vial"/>
              </coding>
            </type>
            <quantity value="10"/>
            <material>
              <coding>
                <system value="https://spor.ema.europa.eu/v1/lists/200000003199"/>
                <code value="200000003204"/>
                <display value="Glass type I"/>
              </coding>
            </material>
            <containedItem>
              <item>
                <reference>
                  <reference value="ManufacturedItemDefinition/Cefuroxime-MIP-1500mg-EE-MID"/>
                </reference>
              </item>
              <amount>
                <value value="1"/>
              </amount>
            </containedItem>
          </packaging>
        </packaging>
      </PackagedProductDefinition>
    </resource>
  </entry>
</Bundle>