{
  "resourceType" : "Bundle",
  "id" : "012-Panodil-500mg-SolutionInSachet-SE-FullProduct",
  "type" : "collection",
  "entry" : [{
    "fullUrl" : "https://hl7-eu.github.io/unicom-ig/branches/mpd-r4b/MedicinalProductDefinition-Panodil500mgoralsolutionsachet-SE-PLC-MPD",
    "resource" : {
      "resourceType" : "MedicinalProductDefinition",
      "id" : "Panodil500mgoralsolutionsachet-SE-PLC-MPD",
      "meta" : {
        "profile" : ["http://unicom-project.eu/fhir/StructureDefinition/PPLMedicinalProductDefinition"]
      },
      "text" : {
        "status" : "generated",
        "div" : "<div xmlns=\"http://www.w3.org/1999/xhtml\"><a name=\"MedicinalProductDefinition_Panodil500mgoralsolutionsachet-SE-PLC-MPD\"> </a><p class=\"res-header-id\"><b>Generated Narrative: MedicinalProductDefinition Panodil500mgoralsolutionsachet-SE-PLC-MPD</b></p><a name=\"Panodil500mgoralsolutionsachet-SE-PLC-MPD\"> </a><a name=\"hcPanodil500mgoralsolutionsachet-SE-PLC-MPD\"> </a><a name=\"hcPanodil500mgoralsolutionsachet-SE-PLC-MPD-en-US\"> </a><p><b>identifier</b>: <code>http://ema.europa.eu/fhir/eurdId</code>/2283</p><p><b>domain</b>: <span title=\"Codes:{https://spor.ema.europa.eu/v1/lists/100000000004 100000000012}\">Human use</span></p><p><b>status</b>: <span title=\"Codes:{https://spor.ema.europa.eu/v1/lists/200000005003 200000005004}\">Current</span></p><p><b>combinedPharmaceuticalDoseForm</b>: <span title=\"Codes:{https://spor.ema.europa.eu/v1/lists/200000000007 100000125752}\">Powder for oral solution in sachet</span></p><p><b>indication</b>: </p><div><p>Panodil 500 mg pulver till oral lösning i dospåse används mot huvudvärk, tandvärk, feber vid förkylningssjukdomar, menstruationssmärtor, muskel- och ledvärk, som analgetikum vid reumatiska smärtor, hyperpyrexi. För vuxna och barn över 12 år.</p>\n</div><p><b>legalStatusOfSupply</b>: <span title=\"Codes:{https://spor.ema.europa.eu/v1/lists/100000072051 100000072076}\">Medicinal product not subject to medical prescription</span></p><p><b>classification</b>: <span title=\"Codes:{https://spor.ema.europa.eu/v1/lists/100000093533 100000097305}\">Paracetamol</span>, <span title=\"Codes:{http://www.whocc.no/atc N02BE01}\">Paracetamol</span></p><blockquote><p><b>name</b></p><p><b>productName</b>: Panodil 500 mg pulver till oral lösning i dospåse</p><blockquote><p><b>part</b></p><p><b>part</b>: Panodil</p><p><b>type</b>: <span title=\"Codes:{https://spor.ema.europa.eu/v1/lists/220000000000 220000000002}\">Invented name part</span></p></blockquote><blockquote><p><b>part</b></p><p><b>part</b>: 500 mg</p><p><b>type</b>: <span title=\"Codes:{https://spor.ema.europa.eu/v1/lists/220000000000 220000000004}\">Strength part</span></p></blockquote><blockquote><p><b>part</b></p><p><b>part</b>: pulver till oral lösning i dospåse</p><p><b>type</b>: <span title=\"Codes:{https://spor.ema.europa.eu/v1/lists/220000000000 220000000005}\">Pharmaceutical dose form part</span></p></blockquote><h3>Usages</h3><table class=\"grid\"><tr><td style=\"display: none\">-</td><td><b>Country</b></td><td><b>Language</b></td></tr><tr><td style=\"display: none\">*</td><td><span title=\"Codes:{https://spor.ema.europa.eu/v1/lists/100000000002 100000000535}\">Kingdom of Sweden</span></td><td><span title=\"Codes:{urn:ietf:bcp:47 sv}\">Swedish</span></td></tr></table></blockquote></div>"
      },
      "identifier" : [{
        "system" : "http://ema.europa.eu/fhir/eurdId",
        "value" : "2283"
      }],
      "domain" : {
        "coding" : [{
          "system" : "https://spor.ema.europa.eu/v1/lists/100000000004",
          "code" : "100000000012",
          "display" : "Human use"
        }]
      },
      "status" : {
        "coding" : [{
          "system" : "https://spor.ema.europa.eu/v1/lists/200000005003",
          "code" : "200000005004",
          "display" : "Current"
        }]
      },
      "combinedPharmaceuticalDoseForm" : {
        "coding" : [{
          "system" : "https://spor.ema.europa.eu/v1/lists/200000000007",
          "code" : "100000125752",
          "display" : "Powder for oral solution in sachet"
        }]
      },
      "indication" : "Panodil 500 mg pulver till oral lösning i dospåse används mot huvudvärk, tandvärk, feber vid förkylningssjukdomar, menstruationssmärtor, muskel- och ledvärk, som analgetikum vid reumatiska smärtor, hyperpyrexi. För vuxna och barn över 12 år.",
      "legalStatusOfSupply" : {
        "coding" : [{
          "system" : "https://spor.ema.europa.eu/v1/lists/100000072051",
          "code" : "100000072076",
          "display" : "Medicinal product not subject to medical prescription"
        }]
      },
      "classification" : [{
        "coding" : [{
          "system" : "https://spor.ema.europa.eu/v1/lists/100000093533",
          "code" : "100000097305",
          "display" : "Paracetamol"
        }]
      },
      {
        "coding" : [{
          "system" : "http://www.whocc.no/atc",
          "code" : "N02BE01",
          "display" : "Paracetamol"
        }]
      }],
      "name" : [{
        "productName" : "Panodil 500 mg pulver till oral lösning i dospåse",
        "part" : [{
          "part" : "Panodil",
          "type" : {
            "coding" : [{
              "system" : "https://spor.ema.europa.eu/v1/lists/220000000000",
              "code" : "220000000002",
              "display" : "Invented name part"
            }]
          }
        },
        {
          "part" : "500 mg",
          "type" : {
            "coding" : [{
              "system" : "https://spor.ema.europa.eu/v1/lists/220000000000",
              "code" : "220000000004",
              "display" : "Strength part"
            }]
          }
        },
        {
          "part" : "pulver till oral lösning i dospåse",
          "type" : {
            "coding" : [{
              "system" : "https://spor.ema.europa.eu/v1/lists/220000000000",
              "code" : "220000000005",
              "display" : "Pharmaceutical dose form part"
            }]
          }
        }],
        "usage" : [{
          "country" : {
            "coding" : [{
              "system" : "https://spor.ema.europa.eu/v1/lists/100000000002",
              "code" : "100000000535",
              "display" : "Kingdom of Sweden"
            }]
          },
          "language" : {
            "coding" : [{
              "system" : "urn:ietf:bcp:47",
              "code" : "sv",
              "display" : "Swedish"
            }]
          }
        }]
      }]
    }
  },
  {
    "fullUrl" : "https://hl7-eu.github.io/unicom-ig/branches/mpd-r4b/RegulatedAuthorization-Panodil500mgoralsolutionsachet-SE-PLC-RegulatedAuthorization",
    "resource" : {
      "resourceType" : "RegulatedAuthorization",
      "id" : "Panodil500mgoralsolutionsachet-SE-PLC-RegulatedAuthorization",
      "meta" : {
        "profile" : ["http://unicom-project.eu/fhir/StructureDefinition/PPLRegulatedAuthorization"]
      },
      "text" : {
        "status" : "generated",
        "div" : "<div xmlns=\"http://www.w3.org/1999/xhtml\"><a name=\"RegulatedAuthorization_Panodil500mgoralsolutionsachet-SE-PLC-RegulatedAuthorization\"> </a><p class=\"res-header-id\"><b>Generated Narrative: RegulatedAuthorization Panodil500mgoralsolutionsachet-SE-PLC-RegulatedAuthorization</b></p><a name=\"Panodil500mgoralsolutionsachet-SE-PLC-RegulatedAuthorization\"> </a><a name=\"hcPanodil500mgoralsolutionsachet-SE-PLC-RegulatedAuthorization\"> </a><a name=\"hcPanodil500mgoralsolutionsachet-SE-PLC-RegulatedAuthorization-en-US\"> </a><p><b>identifier</b>: 12391</p><p><b>subject</b>: <a href=\"Bundle-012-Panodil-500mg-SolutionInSachet-SE-FullProduct.html#MedicinalProductDefinition_Panodil500mgoralsolutionsachet-SE-PLC-MPD\">Bundle: type = collection</a></p><p><b>type</b>: <span title=\"Codes:{https://spor.ema.europa.eu/v1/lists/220000000060 220000000061}\">Marketing Authorisation</span></p><p><b>region</b>: <span title=\"Codes:{https://spor.ema.europa.eu/v1/lists/100000000002 100000000535}\">Kingdom of Sweden</span></p><p><b>status</b>: <span title=\"Codes:{https://spor.ema.europa.eu/v1/lists/100000072049 100000072099}\">Valid</span></p><p><b>statusDate</b>: 1994-10-28</p><p><b>holder</b>: <a href=\"Bundle-012-Panodil-500mg-SolutionInSachet-SE-FullProduct.html#Organization_LOC-100005555-PerrigoSverigeAB\">Bundle: type = collection</a></p></div>"
      },
      "identifier" : [{
        "value" : "12391"
      }],
      "subject" : [{
        "reference" : "MedicinalProductDefinition/Panodil500mgoralsolutionsachet-SE-PLC-MPD"
      }],
      "type" : {
        "coding" : [{
          "system" : "https://spor.ema.europa.eu/v1/lists/220000000060",
          "code" : "220000000061",
          "display" : "Marketing Authorisation"
        }]
      },
      "region" : [{
        "coding" : [{
          "system" : "https://spor.ema.europa.eu/v1/lists/100000000002",
          "code" : "100000000535",
          "display" : "Kingdom of Sweden"
        }]
      }],
      "status" : {
        "coding" : [{
          "system" : "https://spor.ema.europa.eu/v1/lists/100000072049",
          "code" : "100000072099",
          "display" : "Valid"
        }]
      },
      "statusDate" : "1994-10-28",
      "holder" : {
        "reference" : "Organization/LOC-100005555-PerrigoSverigeAB"
      }
    }
  },
  {
    "fullUrl" : "https://hl7-eu.github.io/unicom-ig/branches/mpd-r4b/Organization-LOC-100005555-PerrigoSverigeAB",
    "resource" : {
      "resourceType" : "Organization",
      "id" : "LOC-100005555-PerrigoSverigeAB",
      "meta" : {
        "profile" : ["http://unicom-project.eu/fhir/StructureDefinition/PPLOrganization"]
      },
      "text" : {
        "status" : "generated",
        "div" : "<div xmlns=\"http://www.w3.org/1999/xhtml\"><a name=\"Organization_LOC-100005555-PerrigoSverigeAB\"> </a><p class=\"res-header-id\"><b>Generated Narrative: Organization LOC-100005555-PerrigoSverigeAB</b></p><a name=\"LOC-100005555-PerrigoSverigeAB\"> </a><a name=\"hcLOC-100005555-PerrigoSverigeAB\"> </a><a name=\"hcLOC-100005555-PerrigoSverigeAB-en-US\"> </a><p><b>identifier</b>: <code>https://spor.ema.europa.eu/v1/locations</code>/LOC-100005555</p><p><b>name</b>: Perrigo Sverige AB</p></div>"
      },
      "identifier" : [{
        "system" : "https://spor.ema.europa.eu/v1/locations",
        "value" : "LOC-100005555"
      }],
      "name" : "Perrigo Sverige AB"
    }
  },
  {
    "fullUrl" : "https://hl7-eu.github.io/unicom-ig/branches/mpd-r4b/AdministrableProductDefinition-Panodil500mgoralsolutionsachet-SE-PLC-APD",
    "resource" : {
      "resourceType" : "AdministrableProductDefinition",
      "id" : "Panodil500mgoralsolutionsachet-SE-PLC-APD",
      "meta" : {
        "profile" : ["http://unicom-project.eu/fhir/StructureDefinition/PPLAdministrableProductDefinition"]
      },
      "text" : {
        "status" : "generated",
        "div" : "<div xmlns=\"http://www.w3.org/1999/xhtml\"><a name=\"AdministrableProductDefinition_Panodil500mgoralsolutionsachet-SE-PLC-APD\"> </a><p class=\"res-header-id\"><b>Generated Narrative: AdministrableProductDefinition Panodil500mgoralsolutionsachet-SE-PLC-APD</b></p><a name=\"Panodil500mgoralsolutionsachet-SE-PLC-APD\"> </a><a name=\"hcPanodil500mgoralsolutionsachet-SE-PLC-APD\"> </a><a name=\"hcPanodil500mgoralsolutionsachet-SE-PLC-APD-en-US\"> </a><p><b>status</b>: Active</p><p><b>formOf</b>: <a href=\"Bundle-012-Panodil-500mg-SolutionInSachet-SE-FullProduct.html#MedicinalProductDefinition_Panodil500mgoralsolutionsachet-SE-PLC-MPD\">Bundle: type = collection</a></p><p><b>administrableDoseForm</b>: <span title=\"Codes:{https://spor.ema.europa.eu/v1/lists/200000000004 100000073646}\">Oral solution</span></p><p><b>producedFrom</b>: <a href=\"Bundle-012-Panodil-500mg-SolutionInSachet-SE-FullProduct.html#ManufacturedItemDefinition_Panodil500mgoralsolutionsachet-SE-PLC-MID\">Bundle: type = collection</a></p><h3>RouteOfAdministrations</h3><table class=\"grid\"><tr><td style=\"display: none\">-</td><td><b>Code</b></td></tr><tr><td style=\"display: none\">*</td><td><span title=\"Codes:{https://spor.ema.europa.eu/v1/lists/100000073345 100000073619}\">Oral use</span></td></tr></table></div>"
      },
      "status" : "active",
      "formOf" : [{
        "reference" : "MedicinalProductDefinition/Panodil500mgoralsolutionsachet-SE-PLC-MPD"
      }],
      "administrableDoseForm" : {
        "coding" : [{
          "system" : "https://spor.ema.europa.eu/v1/lists/200000000004",
          "code" : "100000073646",
          "display" : "Oral solution"
        }]
      },
      "producedFrom" : [{
        "reference" : "ManufacturedItemDefinition/Panodil500mgoralsolutionsachet-SE-PLC-MID"
      }],
      "routeOfAdministration" : [{
        "code" : {
          "coding" : [{
            "system" : "https://spor.ema.europa.eu/v1/lists/100000073345",
            "code" : "100000073619",
            "display" : "Oral use"
          }]
        }
      }]
    }
  },
  {
    "fullUrl" : "https://hl7-eu.github.io/unicom-ig/branches/mpd-r4b/PackagedProductDefinition-Panodil500mgoralsolutionsachet-SE-PLC-PackageProductDef",
    "resource" : {
      "resourceType" : "PackagedProductDefinition",
      "id" : "Panodil500mgoralsolutionsachet-SE-PLC-PackageProductDef",
      "meta" : {
        "profile" : ["http://unicom-project.eu/fhir/StructureDefinition/PPLPackagedProductDefinition"]
      },
      "text" : {
        "status" : "generated",
        "div" : "<div xmlns=\"http://www.w3.org/1999/xhtml\"><a name=\"PackagedProductDefinition_Panodil500mgoralsolutionsachet-SE-PLC-PackageProductDef\"> </a><p class=\"res-header-id\"><b>Generated Narrative: PackagedProductDefinition Panodil500mgoralsolutionsachet-SE-PLC-PackageProductDef</b></p><a name=\"Panodil500mgoralsolutionsachet-SE-PLC-PackageProductDef\"> </a><a name=\"hcPanodil500mgoralsolutionsachet-SE-PLC-PackageProductDef\"> </a><a name=\"hcPanodil500mgoralsolutionsachet-SE-PLC-PackageProductDef-en-US\"> </a><p><b>identifier</b>: <code>http://ema.europa.eu/example/pcid</code>/?ngen-9?</p><p><b>packageFor</b>: <a href=\"Bundle-012-Panodil-500mg-SolutionInSachet-SE-FullProduct.html#MedicinalProductDefinition_Panodil500mgoralsolutionsachet-SE-PLC-MPD\">Bundle: type = collection</a></p><p><b>containedItemQuantity</b>: 12 Sachet<span style=\"background: LightGoldenRodYellow\"> (Details: Unit of Presentation EMA  code200000002143 = 'Sachet')</span></p><p><b>description</b>: </p><div><p>Dospåsar, 12 st</p>\n</div><h3>MarketingStatuses</h3><table class=\"grid\"><tr><td style=\"display: none\">-</td><td><b>Country</b></td><td><b>Status</b></td></tr><tr><td style=\"display: none\">*</td><td><span title=\"Codes:{https://spor.ema.europa.eu/v1/lists/100000000002 100000000535}\">Kingdom of Sweden</span></td><td><span title=\"Codes:{https://spor.ema.europa.eu/v1/lists/100000072052 100000072083}\">Marketed</span></td></tr></table><blockquote><p><b>packaging</b></p><p><b>type</b>: <span title=\"Codes:{https://spor.ema.europa.eu/v1/lists/100000073346 100000073498}\">Box</span></p><p><b>quantity</b>: 1</p><p><b>material</b>: <span title=\"Codes:{https://spor.ema.europa.eu/v1/lists/200000003199 200000003529}\">Cardboard</span></p><blockquote><p><b>containedItem</b></p><h3>Items</h3><table class=\"grid\"><tr><td style=\"display: none\">-</td><td><b>Reference</b></td></tr><tr><td style=\"display: none\">*</td><td><a href=\"Bundle-012-Panodil-500mg-SolutionInSachet-SE-FullProduct.html#ManufacturedItemDefinition_Panodil500mgoralsolutionsachet-SE-PLC-MID\">Bundle: type = collection</a></td></tr></table><p><b>amount</b>: 12 Sachet<span style=\"background: LightGoldenRodYellow\"> (Details: Unit of Presentation EMA  code200000002143 = 'Sachet')</span></p></blockquote></blockquote></div>"
      },
      "identifier" : [{
        "system" : "http://ema.europa.eu/example/pcid"
      }],
      "packageFor" : [{
        "reference" : "MedicinalProductDefinition/Panodil500mgoralsolutionsachet-SE-PLC-MPD"
      }],
      "containedItemQuantity" : [{
        "value" : 12,
        "unit" : "Sachet",
        "system" : "https://spor.ema.europa.eu/v1/lists/200000000014",
        "code" : "200000002143"
      }],
      "description" : "Dospåsar, 12 st",
      "marketingStatus" : [{
        "country" : {
          "coding" : [{
            "system" : "https://spor.ema.europa.eu/v1/lists/100000000002",
            "code" : "100000000535",
            "display" : "Kingdom of Sweden"
          }]
        },
        "status" : {
          "coding" : [{
            "system" : "https://spor.ema.europa.eu/v1/lists/100000072052",
            "code" : "100000072083",
            "display" : "Marketed"
          }]
        }
      }],
      "packaging" : {
        "type" : {
          "coding" : [{
            "system" : "https://spor.ema.europa.eu/v1/lists/100000073346",
            "code" : "100000073498",
            "display" : "Box"
          }]
        },
        "quantity" : 1,
        "material" : [{
          "coding" : [{
            "system" : "https://spor.ema.europa.eu/v1/lists/200000003199",
            "code" : "200000003529",
            "display" : "Cardboard"
          }]
        }],
        "containedItem" : [{
          "item" : {
            "reference" : {
              "reference" : "ManufacturedItemDefinition/Panodil500mgoralsolutionsachet-SE-PLC-MID"
            }
          },
          "amount" : {
            "value" : 12,
            "unit" : "Sachet",
            "system" : "https://spor.ema.europa.eu/v1/lists/200000000014",
            "code" : "200000002143"
          }
        }]
      }
    }
  },
  {
    "fullUrl" : "https://hl7-eu.github.io/unicom-ig/branches/mpd-r4b/ManufacturedItemDefinition-Panodil500mgoralsolutionsachet-SE-PLC-MID",
    "resource" : {
      "resourceType" : "ManufacturedItemDefinition",
      "id" : "Panodil500mgoralsolutionsachet-SE-PLC-MID",
      "meta" : {
        "profile" : ["http://unicom-project.eu/fhir/StructureDefinition/PPLManufacturedItemDefinition"]
      },
      "text" : {
        "status" : "generated",
        "div" : "<div xmlns=\"http://www.w3.org/1999/xhtml\"><a name=\"ManufacturedItemDefinition_Panodil500mgoralsolutionsachet-SE-PLC-MID\"> </a><p class=\"res-header-id\"><b>Generated Narrative: ManufacturedItemDefinition Panodil500mgoralsolutionsachet-SE-PLC-MID</b></p><a name=\"Panodil500mgoralsolutionsachet-SE-PLC-MID\"> </a><a name=\"hcPanodil500mgoralsolutionsachet-SE-PLC-MID\"> </a><a name=\"hcPanodil500mgoralsolutionsachet-SE-PLC-MID-en-US\"> </a><p><b>status</b>: Active</p><p><b>manufacturedDoseForm</b>: <span title=\"Codes:{https://spor.ema.europa.eu/v1/lists/200000000004 100000073364}\">Powder for oral solution</span></p><p><b>unitOfPresentation</b>: <span title=\"Codes:{https://spor.ema.europa.eu/v1/lists/200000000014 200000002143}\">Sachet</span></p></div>"
      },
      "status" : "active",
      "manufacturedDoseForm" : {
        "coding" : [{
          "system" : "https://spor.ema.europa.eu/v1/lists/200000000004",
          "code" : "100000073364",
          "display" : "Powder for oral solution"
        }]
      },
      "unitOfPresentation" : {
        "coding" : [{
          "system" : "https://spor.ema.europa.eu/v1/lists/200000000014",
          "code" : "200000002143",
          "display" : "Sachet"
        }]
      }
    }
  },
  {
    "fullUrl" : "https://hl7-eu.github.io/unicom-ig/branches/mpd-r4b/Ingredient-Panodil500mgoralsolutionsachet-SE-PLC-Ingredient",
    "resource" : {
      "resourceType" : "Ingredient",
      "id" : "Panodil500mgoralsolutionsachet-SE-PLC-Ingredient",
      "meta" : {
        "profile" : ["http://unicom-project.eu/fhir/StructureDefinition/PPLIngredient"]
      },
      "text" : {
        "status" : "generated",
        "div" : "<div xmlns=\"http://www.w3.org/1999/xhtml\"><a name=\"Ingredient_Panodil500mgoralsolutionsachet-SE-PLC-Ingredient\"> </a><p class=\"res-header-id\"><b>Generated Narrative: Ingredient Panodil500mgoralsolutionsachet-SE-PLC-Ingredient</b></p><a name=\"Panodil500mgoralsolutionsachet-SE-PLC-Ingredient\"> </a><a name=\"hcPanodil500mgoralsolutionsachet-SE-PLC-Ingredient\"> </a><a name=\"hcPanodil500mgoralsolutionsachet-SE-PLC-Ingredient-en-US\"> </a><p><b>status</b>: Active</p><p><b>for</b>: </p><ul><li><a href=\"Bundle-012-Panodil-500mg-SolutionInSachet-SE-FullProduct.html#MedicinalProductDefinition_Panodil500mgoralsolutionsachet-SE-PLC-MPD\">Bundle: type = collection</a></li><li><a href=\"Bundle-012-Panodil-500mg-SolutionInSachet-SE-FullProduct.html#ManufacturedItemDefinition_Panodil500mgoralsolutionsachet-SE-PLC-MID\">Bundle: type = collection</a></li><li><a href=\"Bundle-012-Panodil-500mg-SolutionInSachet-SE-FullProduct.html#AdministrableProductDefinition_Panodil500mgoralsolutionsachet-SE-PLC-APD\">Bundle: type = collection</a></li></ul><p><b>role</b>: <span title=\"Codes:{https://spor.ema.europa.eu/v1/lists/100000072050 100000072072}\">Active</span></p><blockquote><p><b>substance</b></p><h3>Codes</h3><table class=\"grid\"><tr><td style=\"display: none\">-</td><td><b>Concept</b></td></tr><tr><td style=\"display: none\">*</td><td><span title=\"Codes:{https://spor.ema.europa.eu/v2/SubstanceDefinition 100000090270}\">Paracetamol</span></td></tr></table><blockquote><p><b>strength</b></p><p><b>presentation</b>: 500 milligram(s)<span style=\"background: LightGoldenRodYellow\"> (Details: Unit of Measurement EMA  code100000110655 = 'milligram(s)')</span>/1 Sachet<span style=\"background: LightGoldenRodYellow\"> (Details: Unit of Presentation EMA  code200000002143 = 'Sachet')</span></p><blockquote><p><b>referenceStrength</b></p><h3>Substances</h3><table class=\"grid\"><tr><td style=\"display: none\">-</td><td><b>Concept</b></td></tr><tr><td style=\"display: none\">*</td><td><span title=\"Codes:{https://spor.ema.europa.eu/v2/SubstanceDefinition 100000090270}\">Paracetamol</span></td></tr></table><p><b>strength</b>: 500 milligram(s)<span style=\"background: LightGoldenRodYellow\"> (Details: Unit of Measurement EMA  code100000110655 = 'milligram(s)')</span>/1 Sachet<span style=\"background: LightGoldenRodYellow\"> (Details: Unit of Presentation EMA  code200000002143 = 'Sachet')</span></p></blockquote></blockquote></blockquote></div>"
      },
      "status" : "active",
      "for" : [{
        "reference" : "MedicinalProductDefinition/Panodil500mgoralsolutionsachet-SE-PLC-MPD"
      },
      {
        "reference" : "ManufacturedItemDefinition/Panodil500mgoralsolutionsachet-SE-PLC-MID"
      },
      {
        "reference" : "AdministrableProductDefinition/Panodil500mgoralsolutionsachet-SE-PLC-APD"
      }],
      "role" : {
        "coding" : [{
          "system" : "https://spor.ema.europa.eu/v1/lists/100000072050",
          "code" : "100000072072",
          "display" : "Active"
        }]
      },
      "substance" : {
        "code" : {
          "concept" : {
            "coding" : [{
              "system" : "https://spor.ema.europa.eu/v2/SubstanceDefinition",
              "code" : "100000090270",
              "display" : "Paracetamol"
            }]
          }
        },
        "strength" : [{
          "presentationRatio" : {
            "numerator" : {
              "value" : 500,
              "unit" : "milligram(s)",
              "system" : "https://spor.ema.europa.eu/v1/lists/100000110633",
              "code" : "100000110655"
            },
            "denominator" : {
              "value" : 1,
              "unit" : "Sachet",
              "system" : "https://spor.ema.europa.eu/v1/lists/200000000014",
              "code" : "200000002143"
            }
          },
          "referenceStrength" : [{
            "substance" : {
              "concept" : {
                "coding" : [{
                  "system" : "https://spor.ema.europa.eu/v2/SubstanceDefinition",
                  "code" : "100000090270",
                  "display" : "Paracetamol"
                }]
              }
            },
            "strengthRatio" : {
              "numerator" : {
                "value" : 500,
                "unit" : "milligram(s)",
                "system" : "https://spor.ema.europa.eu/v1/lists/100000110633",
                "code" : "100000110655"
              },
              "denominator" : {
                "value" : 1,
                "unit" : "Sachet",
                "system" : "https://spor.ema.europa.eu/v1/lists/200000000014",
                "code" : "200000002143"
              }
            }
          }]
        }]
      }
    }
  }]
}