{
  "resourceType" : "Bundle",
  "id" : "009-Paracetamol-Kabi10mg-1ml-EE-FullProduct",
  "type" : "collection",
  "entry" : [{
    "fullUrl" : "https://hl7-eu.github.io/unicom-ig/branches/mpd-r4b/MedicinalProductDefinition-Paracetamol-Kabi-10mg-1ml-solinj-EE-MPD",
    "resource" : {
      "resourceType" : "MedicinalProductDefinition",
      "id" : "Paracetamol-Kabi-10mg-1ml-solinj-EE-MPD",
      "meta" : {
        "profile" : ["http://unicom-project.eu/fhir/StructureDefinition/PPLMedicinalProductDefinition"]
      },
      "text" : {
        "status" : "generated",
        "div" : "<div xmlns=\"http://www.w3.org/1999/xhtml\"><a name=\"MedicinalProductDefinition_Paracetamol-Kabi-10mg-1ml-solinj-EE-MPD\"> </a><p class=\"res-header-id\"><b>Generated Narrative: MedicinalProductDefinition Paracetamol-Kabi-10mg-1ml-solinj-EE-MPD</b></p><a name=\"Paracetamol-Kabi-10mg-1ml-solinj-EE-MPD\"> </a><a name=\"hcParacetamol-Kabi-10mg-1ml-solinj-EE-MPD\"> </a><a name=\"hcParacetamol-Kabi-10mg-1ml-solinj-EE-MPD-en-US\"> </a><p><b>identifier</b>: <code>http://ema.europa.eu/fhir/mpId</code>/EE-100008123-25101, <code>http://ema.europa.eu/fhir/pmsId</code>/0000000030</p><p><b>domain</b>: <span title=\"Codes:{https://spor.ema.europa.eu/v1/lists/100000000004 100000000012}\">Human use</span></p><p><b>status</b>: <span title=\"Codes:{https://spor.ema.europa.eu/v1/lists/200000005003 200000005004}\">Current</span></p><p><b>combinedPharmaceuticalDoseForm</b>: <span title=\"Codes:{https://spor.ema.europa.eu/v1/lists/200000000004 100000073870}\">Solution for infusion</span></p><p><b>legalStatusOfSupply</b>: <span title=\"Codes:{https://spor.ema.europa.eu/v1/lists/100000072051 100000072084}\">Medicinal Product subject to medical prescription</span></p><p><b>classification</b>: <span title=\"Codes:{https://spor.ema.europa.eu/v1/lists/100000093533 100000097305}\">Paracetamol</span>, <span title=\"Codes:{http://www.whocc.no/atc N02BE01}\">Paracetamol</span></p><blockquote><p><b>name</b></p><p><b>productName</b>: Paracetamol Kabi 10 mg/ml, infusioonilahus</p><blockquote><p><b>part</b></p><p><b>part</b>: Paracetamol Kabi</p><p><b>type</b>: <span title=\"Codes:{https://spor.ema.europa.eu/v1/lists/220000000000 220000000002}\">Invented name part</span></p></blockquote><blockquote><p><b>part</b></p><p><b>part</b>: 10 mg/ml</p><p><b>type</b>: <span title=\"Codes:{https://spor.ema.europa.eu/v1/lists/220000000000 220000000004}\">Strength part</span></p></blockquote><blockquote><p><b>part</b></p><p><b>part</b>: infusioonilahus</p><p><b>type</b>: <span title=\"Codes:{https://spor.ema.europa.eu/v1/lists/220000000000 220000000005}\">Pharmaceutical dose form part</span></p></blockquote><h3>Usages</h3><table class=\"grid\"><tr><td style=\"display: none\">-</td><td><b>Country</b></td><td><b>Language</b></td></tr><tr><td style=\"display: none\">*</td><td><span title=\"Codes:{https://spor.ema.europa.eu/v1/lists/100000000002 100000000388}\">Republic of Estonia</span></td><td><span title=\"Codes:{urn:ietf:bcp:47 et}\">Estonian</span></td></tr></table></blockquote></div>"
      },
      "identifier" : [{
        "system" : "http://ema.europa.eu/fhir/mpId",
        "value" : "EE-100008123-25101"
      },
      {
        "system" : "http://ema.europa.eu/fhir/pmsId",
        "value" : "0000000030"
      }],
      "domain" : {
        "coding" : [{
          "system" : "https://spor.ema.europa.eu/v1/lists/100000000004",
          "code" : "100000000012",
          "display" : "Human use"
        }]
      },
      "status" : {
        "coding" : [{
          "system" : "https://spor.ema.europa.eu/v1/lists/200000005003",
          "code" : "200000005004",
          "display" : "Current"
        }]
      },
      "combinedPharmaceuticalDoseForm" : {
        "coding" : [{
          "system" : "https://spor.ema.europa.eu/v1/lists/200000000004",
          "code" : "100000073870",
          "display" : "Solution for infusion"
        }]
      },
      "legalStatusOfSupply" : {
        "coding" : [{
          "system" : "https://spor.ema.europa.eu/v1/lists/100000072051",
          "code" : "100000072084",
          "display" : "Medicinal Product subject to medical prescription"
        }]
      },
      "classification" : [{
        "coding" : [{
          "system" : "https://spor.ema.europa.eu/v1/lists/100000093533",
          "code" : "100000097305",
          "display" : "Paracetamol"
        }]
      },
      {
        "coding" : [{
          "system" : "http://www.whocc.no/atc",
          "code" : "N02BE01",
          "display" : "Paracetamol"
        }]
      }],
      "name" : [{
        "productName" : "Paracetamol Kabi 10 mg/ml, infusioonilahus",
        "part" : [{
          "part" : "Paracetamol Kabi",
          "type" : {
            "coding" : [{
              "system" : "https://spor.ema.europa.eu/v1/lists/220000000000",
              "code" : "220000000002",
              "display" : "Invented name part"
            }]
          }
        },
        {
          "part" : "10 mg/ml",
          "type" : {
            "coding" : [{
              "system" : "https://spor.ema.europa.eu/v1/lists/220000000000",
              "code" : "220000000004",
              "display" : "Strength part"
            }]
          }
        },
        {
          "part" : "infusioonilahus",
          "type" : {
            "coding" : [{
              "system" : "https://spor.ema.europa.eu/v1/lists/220000000000",
              "code" : "220000000005",
              "display" : "Pharmaceutical dose form part"
            }]
          }
        }],
        "usage" : [{
          "country" : {
            "coding" : [{
              "system" : "https://spor.ema.europa.eu/v1/lists/100000000002",
              "code" : "100000000388",
              "display" : "Republic of Estonia"
            }]
          },
          "language" : {
            "coding" : [{
              "system" : "urn:ietf:bcp:47",
              "code" : "et",
              "display" : "Estonian"
            }]
          }
        }]
      }]
    }
  },
  {
    "fullUrl" : "https://hl7-eu.github.io/unicom-ig/branches/mpd-r4b/RegulatedAuthorization-Paracetamol-Kabi-10mg-1ml-solinj-EE-RA",
    "resource" : {
      "resourceType" : "RegulatedAuthorization",
      "id" : "Paracetamol-Kabi-10mg-1ml-solinj-EE-RA",
      "meta" : {
        "profile" : ["http://unicom-project.eu/fhir/StructureDefinition/PPLRegulatedAuthorization"]
      },
      "text" : {
        "status" : "generated",
        "div" : "<div xmlns=\"http://www.w3.org/1999/xhtml\"><a name=\"RegulatedAuthorization_Paracetamol-Kabi-10mg-1ml-solinj-EE-RA\"> </a><p class=\"res-header-id\"><b>Generated Narrative: RegulatedAuthorization Paracetamol-Kabi-10mg-1ml-solinj-EE-RA</b></p><a name=\"Paracetamol-Kabi-10mg-1ml-solinj-EE-RA\"> </a><a name=\"hcParacetamol-Kabi-10mg-1ml-solinj-EE-RA\"> </a><a name=\"hcParacetamol-Kabi-10mg-1ml-solinj-EE-RA-en-US\"> </a><p><b>identifier</b>: 715010</p><p><b>subject</b>: <a href=\"Bundle-009-Paracetamol-Kabi10mg-1ml-EE-FullProduct.html#MedicinalProductDefinition_Paracetamol-Kabi-10mg-1ml-solinj-EE-MPD\">Bundle: type = collection</a></p><p><b>type</b>: <span title=\"Codes:{https://spor.ema.europa.eu/v1/lists/220000000060 220000000061}\">Marketing Authorisation</span></p><p><b>region</b>: <span title=\"Codes:{https://spor.ema.europa.eu/v1/lists/100000000002 100000000388}\">Republic of Estonia</span></p><p><b>status</b>: <span title=\"Codes:{https://spor.ema.europa.eu/v1/lists/100000072049 200000017708}\">Valid - Renewed/Varied</span></p><p><b>statusDate</b>: 2015-09-17</p><p><b>holder</b>: <a href=\"Bundle-009-Paracetamol-Kabi10mg-1ml-EE-FullProduct.html#Organization_LOC-100008123-FreseniusKabiPolska\">Bundle: type = collection</a></p></div>"
      },
      "identifier" : [{
        "value" : "715010"
      }],
      "subject" : [{
        "reference" : "MedicinalProductDefinition/Paracetamol-Kabi-10mg-1ml-solinj-EE-MPD"
      }],
      "type" : {
        "coding" : [{
          "system" : "https://spor.ema.europa.eu/v1/lists/220000000060",
          "code" : "220000000061",
          "display" : "Marketing Authorisation"
        }]
      },
      "region" : [{
        "coding" : [{
          "system" : "https://spor.ema.europa.eu/v1/lists/100000000002",
          "code" : "100000000388",
          "display" : "Republic of Estonia"
        }]
      }],
      "status" : {
        "coding" : [{
          "system" : "https://spor.ema.europa.eu/v1/lists/100000072049",
          "code" : "200000017708",
          "display" : "Valid - Renewed/Varied"
        }]
      },
      "statusDate" : "2015-09-17",
      "holder" : {
        "reference" : "Organization/LOC-100008123-FreseniusKabiPolska"
      }
    }
  },
  {
    "fullUrl" : "https://hl7-eu.github.io/unicom-ig/branches/mpd-r4b/Organization-LOC-100008123-FreseniusKabiPolska",
    "resource" : {
      "resourceType" : "Organization",
      "id" : "LOC-100008123-FreseniusKabiPolska",
      "meta" : {
        "profile" : ["http://unicom-project.eu/fhir/StructureDefinition/PPLOrganization"]
      },
      "text" : {
        "status" : "generated",
        "div" : "<div xmlns=\"http://www.w3.org/1999/xhtml\"><a name=\"Organization_LOC-100008123-FreseniusKabiPolska\"> </a><p class=\"res-header-id\"><b>Generated Narrative: Organization LOC-100008123-FreseniusKabiPolska</b></p><a name=\"LOC-100008123-FreseniusKabiPolska\"> </a><a name=\"hcLOC-100008123-FreseniusKabiPolska\"> </a><a name=\"hcLOC-100008123-FreseniusKabiPolska-en-US\"> </a><p><b>identifier</b>: <code>https://spor.ema.europa.eu/v1/locations</code>/LOC-100008123</p><p><b>name</b>: Fresenius Kabi Polska Sp. z o.o.</p></div>"
      },
      "identifier" : [{
        "system" : "https://spor.ema.europa.eu/v1/locations",
        "value" : "LOC-100008123"
      }],
      "name" : "Fresenius Kabi Polska Sp. z o.o."
    }
  },
  {
    "fullUrl" : "https://hl7-eu.github.io/unicom-ig/branches/mpd-r4b/AdministrableProductDefinition-Paracetamol-Kabi-10mg-1ml-solinj-EE-APD",
    "resource" : {
      "resourceType" : "AdministrableProductDefinition",
      "id" : "Paracetamol-Kabi-10mg-1ml-solinj-EE-APD",
      "meta" : {
        "profile" : ["http://unicom-project.eu/fhir/StructureDefinition/PPLAdministrableProductDefinition"]
      },
      "text" : {
        "status" : "generated",
        "div" : "<div xmlns=\"http://www.w3.org/1999/xhtml\"><a name=\"AdministrableProductDefinition_Paracetamol-Kabi-10mg-1ml-solinj-EE-APD\"> </a><p class=\"res-header-id\"><b>Generated Narrative: AdministrableProductDefinition Paracetamol-Kabi-10mg-1ml-solinj-EE-APD</b></p><a name=\"Paracetamol-Kabi-10mg-1ml-solinj-EE-APD\"> </a><a name=\"hcParacetamol-Kabi-10mg-1ml-solinj-EE-APD\"> </a><a name=\"hcParacetamol-Kabi-10mg-1ml-solinj-EE-APD-en-US\"> </a><p><b>status</b>: Active</p><p><b>formOf</b>: <a href=\"Bundle-009-Paracetamol-Kabi10mg-1ml-EE-FullProduct.html#MedicinalProductDefinition_Paracetamol-Kabi-10mg-1ml-solinj-EE-MPD\">Bundle: type = collection</a></p><p><b>administrableDoseForm</b>: <span title=\"Codes:{https://spor.ema.europa.eu/v1/lists/200000000004 100000174051}\">Solution for solution for infusion</span></p><p><b>unitOfPresentation</b>: <span title=\"Codes:{https://spor.ema.europa.eu/v1/lists/200000000014 200000002158}\">Vial</span></p><p><b>producedFrom</b>: <a href=\"Bundle-009-Paracetamol-Kabi10mg-1ml-EE-FullProduct.html#ManufacturedItemDefinition_Paracetamol-Kabi-10mg-1ml-solinj-EE-MID-1424034\">Bundle: type = collection</a></p><h3>RouteOfAdministrations</h3><table class=\"grid\"><tr><td style=\"display: none\">-</td><td><b>Code</b></td></tr><tr><td style=\"display: none\">*</td><td><span title=\"Codes:{https://spor.ema.europa.eu/v1/lists/100000073345 100000073611}\">Intravenous use</span></td></tr></table></div>"
      },
      "status" : "active",
      "formOf" : [{
        "reference" : "MedicinalProductDefinition/Paracetamol-Kabi-10mg-1ml-solinj-EE-MPD"
      }],
      "administrableDoseForm" : {
        "coding" : [{
          "system" : "https://spor.ema.europa.eu/v1/lists/200000000004",
          "code" : "100000174051",
          "display" : "Solution for solution for infusion"
        }]
      },
      "unitOfPresentation" : {
        "coding" : [{
          "system" : "https://spor.ema.europa.eu/v1/lists/200000000014",
          "code" : "200000002158",
          "display" : "Vial"
        }]
      },
      "producedFrom" : [{
        "reference" : "ManufacturedItemDefinition/Paracetamol-Kabi-10mg-1ml-solinj-EE-MID-1424034"
      }],
      "routeOfAdministration" : [{
        "code" : {
          "coding" : [{
            "system" : "https://spor.ema.europa.eu/v1/lists/100000073345",
            "code" : "100000073611",
            "display" : "Intravenous use"
          }]
        }
      }]
    }
  },
  {
    "fullUrl" : "https://hl7-eu.github.io/unicom-ig/branches/mpd-r4b/ManufacturedItemDefinition-Paracetamol-Kabi-10mg-1ml-solinj-EE-MID-1424034",
    "resource" : {
      "resourceType" : "ManufacturedItemDefinition",
      "id" : "Paracetamol-Kabi-10mg-1ml-solinj-EE-MID-1424034",
      "meta" : {
        "profile" : ["http://unicom-project.eu/fhir/StructureDefinition/PPLManufacturedItemDefinition"]
      },
      "text" : {
        "status" : "generated",
        "div" : "<div xmlns=\"http://www.w3.org/1999/xhtml\"><a name=\"ManufacturedItemDefinition_Paracetamol-Kabi-10mg-1ml-solinj-EE-MID-1424034\"> </a><p class=\"res-header-id\"><b>Generated Narrative: ManufacturedItemDefinition Paracetamol-Kabi-10mg-1ml-solinj-EE-MID-1424034</b></p><a name=\"Paracetamol-Kabi-10mg-1ml-solinj-EE-MID-1424034\"> </a><a name=\"hcParacetamol-Kabi-10mg-1ml-solinj-EE-MID-1424034\"> </a><a name=\"hcParacetamol-Kabi-10mg-1ml-solinj-EE-MID-1424034-en-US\"> </a><p><b>status</b>: Active</p><p><b>manufacturedDoseForm</b>: <span title=\"Codes:{https://spor.ema.europa.eu/v1/lists/200000000004 100000073870}\">Solution for infusion</span></p><p><b>unitOfPresentation</b>: <span title=\"Codes:{https://spor.ema.europa.eu/v1/lists/200000000014 200000002158}\">Vial</span></p></div>"
      },
      "status" : "active",
      "manufacturedDoseForm" : {
        "coding" : [{
          "system" : "https://spor.ema.europa.eu/v1/lists/200000000004",
          "code" : "100000073870",
          "display" : "Solution for infusion"
        }]
      },
      "unitOfPresentation" : {
        "coding" : [{
          "system" : "https://spor.ema.europa.eu/v1/lists/200000000014",
          "code" : "200000002158",
          "display" : "Vial"
        }]
      }
    }
  },
  {
    "fullUrl" : "https://hl7-eu.github.io/unicom-ig/branches/mpd-r4b/ManufacturedItemDefinition-Paracetamol-Kabi-10mg-1ml-solinj-EE-MID-1799905",
    "resource" : {
      "resourceType" : "ManufacturedItemDefinition",
      "id" : "Paracetamol-Kabi-10mg-1ml-solinj-EE-MID-1799905",
      "meta" : {
        "profile" : ["http://unicom-project.eu/fhir/StructureDefinition/PPLManufacturedItemDefinition"]
      },
      "text" : {
        "status" : "generated",
        "div" : "<div xmlns=\"http://www.w3.org/1999/xhtml\"><a name=\"ManufacturedItemDefinition_Paracetamol-Kabi-10mg-1ml-solinj-EE-MID-1799905\"> </a><p class=\"res-header-id\"><b>Generated Narrative: ManufacturedItemDefinition Paracetamol-Kabi-10mg-1ml-solinj-EE-MID-1799905</b></p><a name=\"Paracetamol-Kabi-10mg-1ml-solinj-EE-MID-1799905\"> </a><a name=\"hcParacetamol-Kabi-10mg-1ml-solinj-EE-MID-1799905\"> </a><a name=\"hcParacetamol-Kabi-10mg-1ml-solinj-EE-MID-1799905-en-US\"> </a><p><b>status</b>: Active</p><p><b>manufacturedDoseForm</b>: <span title=\"Codes:{https://spor.ema.europa.eu/v1/lists/200000000004 100000073870}\">Solution for infusion</span></p><p><b>unitOfPresentation</b>: <span title=\"Codes:{https://spor.ema.europa.eu/v1/lists/200000000014 200000002164}\">Ampoule</span></p></div>"
      },
      "status" : "active",
      "manufacturedDoseForm" : {
        "coding" : [{
          "system" : "https://spor.ema.europa.eu/v1/lists/200000000004",
          "code" : "100000073870",
          "display" : "Solution for infusion"
        }]
      },
      "unitOfPresentation" : {
        "coding" : [{
          "system" : "https://spor.ema.europa.eu/v1/lists/200000000014",
          "code" : "200000002164",
          "display" : "Ampoule"
        }]
      }
    }
  },
  {
    "fullUrl" : "https://hl7-eu.github.io/unicom-ig/branches/mpd-r4b/ManufacturedItemDefinition-Paracetamol-Kabi-10mg-1ml-solinj-EE-MID-1424056",
    "resource" : {
      "resourceType" : "ManufacturedItemDefinition",
      "id" : "Paracetamol-Kabi-10mg-1ml-solinj-EE-MID-1424056",
      "meta" : {
        "profile" : ["http://unicom-project.eu/fhir/StructureDefinition/PPLManufacturedItemDefinition"]
      },
      "text" : {
        "status" : "generated",
        "div" : "<div xmlns=\"http://www.w3.org/1999/xhtml\"><a name=\"ManufacturedItemDefinition_Paracetamol-Kabi-10mg-1ml-solinj-EE-MID-1424056\"> </a><p class=\"res-header-id\"><b>Generated Narrative: ManufacturedItemDefinition Paracetamol-Kabi-10mg-1ml-solinj-EE-MID-1424056</b></p><a name=\"Paracetamol-Kabi-10mg-1ml-solinj-EE-MID-1424056\"> </a><a name=\"hcParacetamol-Kabi-10mg-1ml-solinj-EE-MID-1424056\"> </a><a name=\"hcParacetamol-Kabi-10mg-1ml-solinj-EE-MID-1424056-en-US\"> </a><p><b>status</b>: Active</p><p><b>manufacturedDoseForm</b>: <span title=\"Codes:{https://spor.ema.europa.eu/v1/lists/200000000004 100000073870}\">Solution for infusion</span></p><p><b>unitOfPresentation</b>: <span title=\"Codes:{https://spor.ema.europa.eu/v1/lists/200000000014 200000002166}\">Bag</span></p></div>"
      },
      "status" : "active",
      "manufacturedDoseForm" : {
        "coding" : [{
          "system" : "https://spor.ema.europa.eu/v1/lists/200000000004",
          "code" : "100000073870",
          "display" : "Solution for infusion"
        }]
      },
      "unitOfPresentation" : {
        "coding" : [{
          "system" : "https://spor.ema.europa.eu/v1/lists/200000000014",
          "code" : "200000002166",
          "display" : "Bag"
        }]
      }
    }
  },
  {
    "fullUrl" : "https://hl7-eu.github.io/unicom-ig/branches/mpd-r4b/Ingredient-Paracetamol-Kabi-10mg-1ml-solinj-EE-I",
    "resource" : {
      "resourceType" : "Ingredient",
      "id" : "Paracetamol-Kabi-10mg-1ml-solinj-EE-I",
      "meta" : {
        "profile" : ["http://unicom-project.eu/fhir/StructureDefinition/PPLIngredient"]
      },
      "text" : {
        "status" : "generated",
        "div" : "<div xmlns=\"http://www.w3.org/1999/xhtml\"><a name=\"Ingredient_Paracetamol-Kabi-10mg-1ml-solinj-EE-I\"> </a><p class=\"res-header-id\"><b>Generated Narrative: Ingredient Paracetamol-Kabi-10mg-1ml-solinj-EE-I</b></p><a name=\"Paracetamol-Kabi-10mg-1ml-solinj-EE-I\"> </a><a name=\"hcParacetamol-Kabi-10mg-1ml-solinj-EE-I\"> </a><a name=\"hcParacetamol-Kabi-10mg-1ml-solinj-EE-I-en-US\"> </a><p><b>status</b>: Active</p><p><b>for</b>: </p><ul><li><a href=\"Bundle-009-Paracetamol-Kabi10mg-1ml-EE-FullProduct.html#MedicinalProductDefinition_Paracetamol-Kabi-10mg-1ml-solinj-EE-MPD\">Bundle: type = collection</a></li><li><a href=\"Bundle-009-Paracetamol-Kabi10mg-1ml-EE-FullProduct.html#ManufacturedItemDefinition_Paracetamol-Kabi-10mg-1ml-solinj-EE-MID-1424034\">Bundle: type = collection</a></li><li><a href=\"Bundle-009-Paracetamol-Kabi10mg-1ml-EE-FullProduct.html#ManufacturedItemDefinition_Paracetamol-Kabi-10mg-1ml-solinj-EE-MID-1799905\">Bundle: type = collection</a></li><li><a href=\"Bundle-009-Paracetamol-Kabi10mg-1ml-EE-FullProduct.html#ManufacturedItemDefinition_Paracetamol-Kabi-10mg-1ml-solinj-EE-MID-1424056\">Bundle: type = collection</a></li><li><a href=\"Bundle-009-Paracetamol-Kabi10mg-1ml-EE-FullProduct.html#AdministrableProductDefinition_Paracetamol-Kabi-10mg-1ml-solinj-EE-APD\">Bundle: type = collection</a></li></ul><p><b>role</b>: <span title=\"Codes:{https://spor.ema.europa.eu/v1/lists/100000072050 100000072072}\">Active</span></p><blockquote><p><b>substance</b></p><h3>Codes</h3><table class=\"grid\"><tr><td style=\"display: none\">-</td><td><b>Concept</b></td></tr><tr><td style=\"display: none\">*</td><td><span title=\"Codes:{https://spor.ema.europa.eu/v2/SubstanceDefinition 100000090270}\">Paracetamol</span></td></tr></table><h3>Strengths</h3><table class=\"grid\"><tr><td style=\"display: none\">-</td><td><b>Concentration[x]</b></td></tr><tr><td style=\"display: none\">*</td><td>10 milligram(s)<span style=\"background: LightGoldenRodYellow\"> (Details: Unit of Measurement EMA  code100000110655 = 'milligram(s)')</span>/1 millilitre(s)<span style=\"background: LightGoldenRodYellow\"> (Details: Unit of Measurement EMA  code100000110662 = 'millilitre(s)')</span></td></tr></table></blockquote></div>"
      },
      "status" : "active",
      "for" : [{
        "reference" : "MedicinalProductDefinition/Paracetamol-Kabi-10mg-1ml-solinj-EE-MPD"
      },
      {
        "reference" : "ManufacturedItemDefinition/Paracetamol-Kabi-10mg-1ml-solinj-EE-MID-1424034"
      },
      {
        "reference" : "ManufacturedItemDefinition/Paracetamol-Kabi-10mg-1ml-solinj-EE-MID-1799905"
      },
      {
        "reference" : "ManufacturedItemDefinition/Paracetamol-Kabi-10mg-1ml-solinj-EE-MID-1424056"
      },
      {
        "reference" : "AdministrableProductDefinition/Paracetamol-Kabi-10mg-1ml-solinj-EE-APD"
      }],
      "role" : {
        "coding" : [{
          "system" : "https://spor.ema.europa.eu/v1/lists/100000072050",
          "code" : "100000072072",
          "display" : "Active"
        }]
      },
      "substance" : {
        "code" : {
          "concept" : {
            "coding" : [{
              "system" : "https://spor.ema.europa.eu/v2/SubstanceDefinition",
              "code" : "100000090270",
              "display" : "Paracetamol"
            }]
          }
        },
        "strength" : [{
          "concentrationRatio" : {
            "numerator" : {
              "value" : 10,
              "unit" : "milligram(s)",
              "system" : "https://spor.ema.europa.eu/v1/lists/100000110633",
              "code" : "100000110655"
            },
            "denominator" : {
              "value" : 1,
              "unit" : "millilitre(s)",
              "system" : "https://spor.ema.europa.eu/v1/lists/100000110633",
              "code" : "100000110662"
            }
          }
        }]
      }
    }
  },
  {
    "fullUrl" : "https://hl7-eu.github.io/unicom-ig/branches/mpd-r4b/PackagedProductDefinition-Paracetamol-Kabi-10mg-1ml-solinj-EE-PPD-1424034",
    "resource" : {
      "resourceType" : "PackagedProductDefinition",
      "id" : "Paracetamol-Kabi-10mg-1ml-solinj-EE-PPD-1424034",
      "meta" : {
        "profile" : ["http://unicom-project.eu/fhir/StructureDefinition/PPLPackagedProductDefinition"]
      },
      "text" : {
        "status" : "generated",
        "div" : "<div xmlns=\"http://www.w3.org/1999/xhtml\"><a name=\"PackagedProductDefinition_Paracetamol-Kabi-10mg-1ml-solinj-EE-PPD-1424034\"> </a><p class=\"res-header-id\"><b>Generated Narrative: PackagedProductDefinition Paracetamol-Kabi-10mg-1ml-solinj-EE-PPD-1424034</b></p><a name=\"Paracetamol-Kabi-10mg-1ml-solinj-EE-PPD-1424034\"> </a><a name=\"hcParacetamol-Kabi-10mg-1ml-solinj-EE-PPD-1424034\"> </a><a name=\"hcParacetamol-Kabi-10mg-1ml-solinj-EE-PPD-1424034-en-US\"> </a><p><b>identifier</b>: <code>http://ema.europa.eu/example/pcid</code>/EE-100008123-25101-1424034</p><p><b>packageFor</b>: <a href=\"Bundle-009-Paracetamol-Kabi10mg-1ml-EE-FullProduct.html#MedicinalProductDefinition_Paracetamol-Kabi-10mg-1ml-solinj-EE-MPD\">Bundle: type = collection</a></p><p><b>containedItemQuantity</b>: 1 Vial<span style=\"background: LightGoldenRodYellow\"> (Details: Unit of Presentation EMA  code200000002158 = 'Vial')</span></p><p><b>description</b>: </p><div><p>50 ml ja 100 ml II tüüpi klaasist viaalid, mis on suletud bromobutüülkorgi ja alumiinium/plastik  äratõmmatava korgiga.</p>\n</div><h3>MarketingStatuses</h3><table class=\"grid\"><tr><td style=\"display: none\">-</td><td><b>Country</b></td><td><b>Status</b></td></tr><tr><td style=\"display: none\">*</td><td><span title=\"Codes:{https://spor.ema.europa.eu/v1/lists/100000000002 100000000388}\">Republic of Estonia</span></td><td><span title=\"Codes:{https://spor.ema.europa.eu/v1/lists/100000072052 100000072083}\">Marketed</span></td></tr></table><blockquote><p><b>packaging</b></p><p><b>type</b>: <span title=\"Codes:{https://spor.ema.europa.eu/v1/lists/100000073346 100000073498}\">Box</span></p><p><b>quantity</b>: 1</p><p><b>material</b>: <span title=\"Codes:{https://spor.ema.europa.eu/v1/lists/200000003199 200000003529}\">Cardboard</span></p><blockquote><p><b>packaging</b></p></blockquote></blockquote></div>"
      },
      "identifier" : [{
        "system" : "http://ema.europa.eu/example/pcid",
        "value" : "EE-100008123-25101-1424034"
      }],
      "packageFor" : [{
        "reference" : "MedicinalProductDefinition/Paracetamol-Kabi-10mg-1ml-solinj-EE-MPD"
      }],
      "containedItemQuantity" : [{
        "value" : 1,
        "unit" : "Vial",
        "system" : "https://spor.ema.europa.eu/v1/lists/200000000014",
        "code" : "200000002158"
      }],
      "description" : " 50 ml ja 100 ml II tüüpi klaasist viaalid, mis on suletud bromobutüülkorgi ja alumiinium/plastik  äratõmmatava korgiga.",
      "marketingStatus" : [{
        "country" : {
          "coding" : [{
            "system" : "https://spor.ema.europa.eu/v1/lists/100000000002",
            "code" : "100000000388",
            "display" : "Republic of Estonia"
          }]
        },
        "status" : {
          "coding" : [{
            "system" : "https://spor.ema.europa.eu/v1/lists/100000072052",
            "code" : "100000072083",
            "display" : "Marketed"
          }]
        }
      }],
      "packaging" : {
        "type" : {
          "coding" : [{
            "system" : "https://spor.ema.europa.eu/v1/lists/100000073346",
            "code" : "100000073498",
            "display" : "Box"
          }]
        },
        "quantity" : 1,
        "material" : [{
          "coding" : [{
            "system" : "https://spor.ema.europa.eu/v1/lists/200000003199",
            "code" : "200000003529",
            "display" : "Cardboard"
          }]
        }],
        "packaging" : [{
          "type" : {
            "coding" : [{
              "system" : "https://spor.ema.europa.eu/v1/lists/100000073346",
              "code" : "100000073563",
              "display" : "vial"
            }]
          },
          "quantity" : 1,
          "material" : [{
            "coding" : [{
              "system" : "https://spor.ema.europa.eu/v1/lists/200000003199",
              "code" : "200000003205",
              "display" : "Glass type II"
            }]
          }],
          "containedItem" : [{
            "item" : {
              "reference" : {
                "reference" : "ManufacturedItemDefinition/Paracetamol-Kabi-10mg-1ml-solinj-EE-MID-1424034"
              }
            },
            "amount" : {
              "value" : 100,
              "unit" : "millilitre(s)",
              "system" : "https://spor.ema.europa.eu/v1/lists/100000110633",
              "code" : "100000110662"
            }
          }]
        }]
      }
    }
  },
  {
    "fullUrl" : "https://hl7-eu.github.io/unicom-ig/branches/mpd-r4b/PackagedProductDefinition-Paracetamol-Kabi-10mg-1ml-solinj-EE-PPD-1799905",
    "resource" : {
      "resourceType" : "PackagedProductDefinition",
      "id" : "Paracetamol-Kabi-10mg-1ml-solinj-EE-PPD-1799905",
      "meta" : {
        "profile" : ["http://unicom-project.eu/fhir/StructureDefinition/PPLPackagedProductDefinition"]
      },
      "text" : {
        "status" : "generated",
        "div" : "<div xmlns=\"http://www.w3.org/1999/xhtml\"><a name=\"PackagedProductDefinition_Paracetamol-Kabi-10mg-1ml-solinj-EE-PPD-1799905\"> </a><p class=\"res-header-id\"><b>Generated Narrative: PackagedProductDefinition Paracetamol-Kabi-10mg-1ml-solinj-EE-PPD-1799905</b></p><a name=\"Paracetamol-Kabi-10mg-1ml-solinj-EE-PPD-1799905\"> </a><a name=\"hcParacetamol-Kabi-10mg-1ml-solinj-EE-PPD-1799905\"> </a><a name=\"hcParacetamol-Kabi-10mg-1ml-solinj-EE-PPD-1799905-en-US\"> </a><p><b>identifier</b>: <code>http://ema.europa.eu/example/pcid</code>/EE-100008123-25101-1799905</p><p><b>packageFor</b>: <a href=\"Bundle-009-Paracetamol-Kabi10mg-1ml-EE-FullProduct.html#MedicinalProductDefinition_Paracetamol-Kabi-10mg-1ml-solinj-EE-MPD\">Bundle: type = collection</a></p><p><b>containedItemQuantity</b>: 10 Ampoule<span style=\"background: LightGoldenRodYellow\"> (Details: Unit of Presentation EMA  code200000002164 = 'Ampoule')</span></p><p><b>description</b>: </p><div><p>10 ml I tüüpi värvitust klaasist ampullid.</p>\n</div><h3>MarketingStatuses</h3><table class=\"grid\"><tr><td style=\"display: none\">-</td><td><b>Country</b></td><td><b>Status</b></td></tr><tr><td style=\"display: none\">*</td><td><span title=\"Codes:{https://spor.ema.europa.eu/v1/lists/100000000002 100000000388}\">Republic of Estonia</span></td><td><span title=\"Codes:{https://spor.ema.europa.eu/v1/lists/100000072052 100000072083}\">Marketed</span></td></tr></table><blockquote><p><b>packaging</b></p><p><b>type</b>: <span title=\"Codes:{https://spor.ema.europa.eu/v1/lists/100000073346 100000073498}\">Box</span></p><p><b>quantity</b>: 1</p><p><b>material</b>: <span title=\"Codes:{https://spor.ema.europa.eu/v1/lists/200000003199 200000003529}\">Cardboard</span></p><blockquote><p><b>packaging</b></p></blockquote></blockquote></div>"
      },
      "identifier" : [{
        "system" : "http://ema.europa.eu/example/pcid",
        "value" : "EE-100008123-25101-1799905"
      }],
      "packageFor" : [{
        "reference" : "MedicinalProductDefinition/Paracetamol-Kabi-10mg-1ml-solinj-EE-MPD"
      }],
      "containedItemQuantity" : [{
        "value" : 10,
        "unit" : "Ampoule",
        "system" : "https://spor.ema.europa.eu/v1/lists/200000000014",
        "code" : "200000002164"
      }],
      "description" : "10 ml I tüüpi värvitust klaasist ampullid.",
      "marketingStatus" : [{
        "country" : {
          "coding" : [{
            "system" : "https://spor.ema.europa.eu/v1/lists/100000000002",
            "code" : "100000000388",
            "display" : "Republic of Estonia"
          }]
        },
        "status" : {
          "coding" : [{
            "system" : "https://spor.ema.europa.eu/v1/lists/100000072052",
            "code" : "100000072083",
            "display" : "Marketed"
          }]
        }
      }],
      "packaging" : {
        "type" : {
          "coding" : [{
            "system" : "https://spor.ema.europa.eu/v1/lists/100000073346",
            "code" : "100000073498",
            "display" : "Box"
          }]
        },
        "quantity" : 1,
        "material" : [{
          "coding" : [{
            "system" : "https://spor.ema.europa.eu/v1/lists/200000003199",
            "code" : "200000003529",
            "display" : "Cardboard"
          }]
        }],
        "packaging" : [{
          "type" : {
            "coding" : [{
              "system" : "https://spor.ema.europa.eu/v1/lists/100000073346",
              "code" : "100000073490",
              "display" : "Ampoule"
            }]
          },
          "quantity" : 10,
          "material" : [{
            "coding" : [{
              "system" : "https://spor.ema.europa.eu/v1/lists/200000003199",
              "code" : "200000003204",
              "display" : "Glass type I"
            }]
          }],
          "containedItem" : [{
            "item" : {
              "reference" : {
                "reference" : "ManufacturedItemDefinition/Paracetamol-Kabi-10mg-1ml-solinj-EE-MID-1799905"
              }
            },
            "amount" : {
              "value" : 10,
              "unit" : "millilitre(s)",
              "system" : "https://spor.ema.europa.eu/v1/lists/100000110633",
              "code" : "100000110662"
            }
          }]
        }]
      }
    }
  },
  {
    "fullUrl" : "https://hl7-eu.github.io/unicom-ig/branches/mpd-r4b/PackagedProductDefinition-Paracetamol-Kabi-10mg-1ml-solinj-EE-PPD-1424056",
    "resource" : {
      "resourceType" : "PackagedProductDefinition",
      "id" : "Paracetamol-Kabi-10mg-1ml-solinj-EE-PPD-1424056",
      "meta" : {
        "profile" : ["http://unicom-project.eu/fhir/StructureDefinition/PPLPackagedProductDefinition"]
      },
      "text" : {
        "status" : "generated",
        "div" : "<div xmlns=\"http://www.w3.org/1999/xhtml\"><a name=\"PackagedProductDefinition_Paracetamol-Kabi-10mg-1ml-solinj-EE-PPD-1424056\"> </a><p class=\"res-header-id\"><b>Generated Narrative: PackagedProductDefinition Paracetamol-Kabi-10mg-1ml-solinj-EE-PPD-1424056</b></p><a name=\"Paracetamol-Kabi-10mg-1ml-solinj-EE-PPD-1424056\"> </a><a name=\"hcParacetamol-Kabi-10mg-1ml-solinj-EE-PPD-1424056\"> </a><a name=\"hcParacetamol-Kabi-10mg-1ml-solinj-EE-PPD-1424056-en-US\"> </a><p><b>identifier</b>: <code>http://ema.europa.eu/example/pcid</code>/EE-100008123-25101-1424056</p><p><b>packageFor</b>: <a href=\"Bundle-009-Paracetamol-Kabi10mg-1ml-EE-FullProduct.html#MedicinalProductDefinition_Paracetamol-Kabi-10mg-1ml-solinj-EE-MPD\">Bundle: type = collection</a></p><p><b>containedItemQuantity</b>: 1 Bag<span style=\"background: LightGoldenRodYellow\"> (Details: Unit of Presentation EMA  code200000002166 = 'Bag')</span></p><p><b>description</b>: </p><div><p>50 ml ja 100 ml plastkotid, millel on manustamisport (infusiooniport) ja lisamisport (süsteport); kotid koosnevad polüolefiinist sisekihist ja alumiiniumisisaldusega kattekihist ning sisaldavad hapnikuabsorbenti. Kotid on suletud polüisopreenist korgi ja polüpropüleenist kaanega.</p>\n</div><h3>MarketingStatuses</h3><table class=\"grid\"><tr><td style=\"display: none\">-</td><td><b>Country</b></td><td><b>Status</b></td></tr><tr><td style=\"display: none\">*</td><td><span title=\"Codes:{https://spor.ema.europa.eu/v1/lists/100000000002 100000000388}\">Republic of Estonia</span></td><td><span title=\"Codes:{https://spor.ema.europa.eu/v1/lists/100000072052 100000072083}\">Marketed</span></td></tr></table><blockquote><p><b>packaging</b></p><p><b>type</b>: <span title=\"Codes:{https://spor.ema.europa.eu/v1/lists/100000073346 100000073498}\">Box</span></p><p><b>quantity</b>: 1</p><p><b>material</b>: <span title=\"Codes:{https://spor.ema.europa.eu/v1/lists/200000003199 200000003529}\">Cardboard</span></p><blockquote><p><b>packaging</b></p></blockquote></blockquote></div>"
      },
      "identifier" : [{
        "system" : "http://ema.europa.eu/example/pcid",
        "value" : "EE-100008123-25101-1424056"
      }],
      "packageFor" : [{
        "reference" : "MedicinalProductDefinition/Paracetamol-Kabi-10mg-1ml-solinj-EE-MPD"
      }],
      "containedItemQuantity" : [{
        "value" : 1,
        "unit" : "Bag",
        "system" : "https://spor.ema.europa.eu/v1/lists/200000000014",
        "code" : "200000002166"
      }],
      "description" : "50 ml ja 100 ml plastkotid, millel on manustamisport (infusiooniport) ja lisamisport (süsteport); kotid koosnevad polüolefiinist sisekihist ja alumiiniumisisaldusega kattekihist ning sisaldavad hapnikuabsorbenti. Kotid on suletud polüisopreenist korgi ja polüpropüleenist kaanega.",
      "marketingStatus" : [{
        "country" : {
          "coding" : [{
            "system" : "https://spor.ema.europa.eu/v1/lists/100000000002",
            "code" : "100000000388",
            "display" : "Republic of Estonia"
          }]
        },
        "status" : {
          "coding" : [{
            "system" : "https://spor.ema.europa.eu/v1/lists/100000072052",
            "code" : "100000072083",
            "display" : "Marketed"
          }]
        }
      }],
      "packaging" : {
        "type" : {
          "coding" : [{
            "system" : "https://spor.ema.europa.eu/v1/lists/100000073346",
            "code" : "100000073498",
            "display" : "Box"
          }]
        },
        "quantity" : 1,
        "material" : [{
          "coding" : [{
            "system" : "https://spor.ema.europa.eu/v1/lists/200000003199",
            "code" : "200000003529",
            "display" : "Cardboard"
          }]
        }],
        "packaging" : [{
          "type" : {
            "coding" : [{
              "system" : "https://spor.ema.europa.eu/v1/lists/100000073346",
              "code" : "100000073493",
              "display" : "Bag"
            }]
          },
          "quantity" : 20,
          "material" : [{
            "coding" : [{
              "system" : "https://spor.ema.europa.eu/v1/lists/200000003199",
              "code" : "200000003218",
              "display" : "Polyolefin"
            }]
          }],
          "containedItem" : [{
            "item" : {
              "reference" : {
                "reference" : "ManufacturedItemDefinition/Paracetamol-Kabi-10mg-1ml-solinj-EE-MID-1424056"
              }
            },
            "amount" : {
              "value" : 100,
              "unit" : "millilitre(s)",
              "system" : "https://spor.ema.europa.eu/v1/lists/100000110633",
              "code" : "100000110662"
            }
          }]
        }]
      }
    }
  }]
}