{
  "resourceType" : "Bundle",
  "id" : "AT-Curocef-1500-Powder",
  "type" : "collection",
  "entry" : [{
    "fullUrl" : "https://hl7-eu.github.io/unicom-ig/MedicinalProductDefinition-Curocef-1500mg-Powder-AT-MPD",
    "resource" : {
      "resourceType" : "MedicinalProductDefinition",
      "id" : "Curocef-1500mg-Powder-AT-MPD",
      "meta" : {
        "profile" : ["http://unicom-project.eu/fhir/StructureDefinition/PPLMedicinalProductDefinition"]
      },
      "text" : {
        "status" : "generated",
        "div" : "<div xmlns=\"http://www.w3.org/1999/xhtml\"><a name=\"MedicinalProductDefinition_Curocef-1500mg-Powder-AT-MPD\"> </a><p class=\"res-header-id\"><b>Generated Narrative: MedicinalProductDefinition Curocef-1500mg-Powder-AT-MPD</b></p><a name=\"Curocef-1500mg-Powder-AT-MPD\"> </a><a name=\"hcCurocef-1500mg-Powder-AT-MPD\"> </a><a name=\"hcCurocef-1500mg-Powder-AT-MPD-en-US\"> </a><p><b>identifier</b>: <code>http://ema.europa.eu/fhir/eurdId</code>/2215</p><p><b>domain</b>: <span title=\"Codes:{https://spor.ema.europa.eu/v1/lists/100000000004 100000000012}\">Human use</span></p><p><b>status</b>: <span title=\"Codes:{https://spor.ema.europa.eu/v1/lists/200000005003 200000005004}\">Current</span></p><p><b>combinedPharmaceuticalDoseForm</b>: <span title=\"Codes:{https://spor.ema.europa.eu/v1/lists/200000000004 100000116186}\">Powder for solution for injection/infusion</span></p><p><b>indication</b>: </p><div><p>Cefuroxim Stragen är avsett för behandling av nedanstående infektioner hos vuxna och barn, även  nyfödda (från födelsen). • Samhällsförvärvad pneumoni • Akut exacerbation av kronisk bronkit. • Komplicerade urinvägsinfektioner, även pyelonefrit. • Mjukdelsinfektioner: cellulit, erysipelas och sårinfektioner. • Intraabdominella infektioner. • Profylax mot infektion inför gastrointestinal (även esofageal), ortopedisk, kardiovaskulär och  gynekologisk operation (även kejsarsnitt). Vid behandling och förebyggande av infektioner då det är mycket troligt att anaeroba organismer  påträffas ska cefuroxim administreras tillsammans med ett lämpligt antianaerobt antibiotikum. Hänsyn ska tas till officiella riktlinjer om lämplig användning av antibakteriella medel.</p>\n</div><p><b>legalStatusOfSupply</b>: <span title=\"Codes:{https://spor.ema.europa.eu/v1/lists/100000072051 100000072079}\">Medicinal product on medical prescription for non-renewable delivery</span></p><p><b>classification</b>: <span title=\"Codes:{https://spor.ema.europa.eu/v1/lists/100000093533 100000096183}\">Cefuroxime</span>, <span title=\"Codes:{http://www.whocc.no/atc J01DC02}\">cefuroxime</span></p><blockquote><p><b>name</b></p><p><b>productName</b>: Curocef 1500 mg Pulver zur Herstellung einer Injektions- oder Infusionslösung</p><blockquote><p><b>part</b></p><p><b>part</b>: Curocef</p><p><b>type</b>: <span title=\"Codes:{https://spor.ema.europa.eu/v1/lists/220000000000 220000000002}\">Invented name part</span></p></blockquote><blockquote><p><b>part</b></p><p><b>part</b>: 1500 mg</p><p><b>type</b>: <span title=\"Codes:{https://spor.ema.europa.eu/v1/lists/220000000000 220000000004}\">Strength part</span></p></blockquote><blockquote><p><b>part</b></p><p><b>part</b>: Pulver zur Herstellung einer Injektions- oder Infusionslösung</p><p><b>type</b>: <span title=\"Codes:{https://spor.ema.europa.eu/v1/lists/220000000000 220000000005}\">Pharmaceutical dose form part</span></p></blockquote><h3>Usages</h3><table class=\"grid\"><tr><td style=\"display: none\">-</td><td><b>Country</b></td><td><b>Language</b></td></tr><tr><td style=\"display: none\">*</td><td><span title=\"Codes:{https://spor.ema.europa.eu/v1/lists/100000000002 100000000330}\">Austria</span></td><td><span title=\"Codes:{urn:ietf:bcp:47 de}\">German</span></td></tr></table></blockquote></div>"
      },
      "identifier" : [{
        "system" : "http://ema.europa.eu/fhir/eurdId",
        "value" : "2215"
      }],
      "domain" : {
        "coding" : [{
          "system" : "https://spor.ema.europa.eu/v1/lists/100000000004",
          "code" : "100000000012",
          "display" : "Human use"
        }]
      },
      "status" : {
        "coding" : [{
          "system" : "https://spor.ema.europa.eu/v1/lists/200000005003",
          "code" : "200000005004",
          "display" : "Current"
        }]
      },
      "combinedPharmaceuticalDoseForm" : {
        "coding" : [{
          "system" : "https://spor.ema.europa.eu/v1/lists/200000000004",
          "code" : "100000116186",
          "display" : "Powder for solution for injection/infusion"
        }]
      },
      "indication" : "Cefuroxim Stragen är avsett för behandling av nedanstående infektioner hos vuxna och barn, även  nyfödda (från födelsen). • Samhällsförvärvad pneumoni • Akut exacerbation av kronisk bronkit. • Komplicerade urinvägsinfektioner, även pyelonefrit. • Mjukdelsinfektioner: cellulit, erysipelas och sårinfektioner. • Intraabdominella infektioner. • Profylax mot infektion inför gastrointestinal (även esofageal), ortopedisk, kardiovaskulär och  gynekologisk operation (även kejsarsnitt). Vid behandling och förebyggande av infektioner då det är mycket troligt att anaeroba organismer  påträffas ska cefuroxim administreras tillsammans med ett lämpligt antianaerobt antibiotikum. Hänsyn ska tas till officiella riktlinjer om lämplig användning av antibakteriella medel. ",
      "legalStatusOfSupply" : {
        "coding" : [{
          "system" : "https://spor.ema.europa.eu/v1/lists/100000072051",
          "code" : "100000072079",
          "display" : "Medicinal product on medical prescription for non-renewable delivery"
        }]
      },
      "classification" : [{
        "coding" : [{
          "system" : "https://spor.ema.europa.eu/v1/lists/100000093533",
          "code" : "100000096183",
          "display" : "Cefuroxime"
        }]
      },
      {
        "coding" : [{
          "system" : "http://www.whocc.no/atc",
          "code" : "J01DC02",
          "display" : "cefuroxime"
        }]
      }],
      "name" : [{
        "productName" : "Curocef 1500 mg Pulver zur Herstellung einer Injektions- oder Infusionslösung",
        "part" : [{
          "part" : "Curocef",
          "type" : {
            "coding" : [{
              "system" : "https://spor.ema.europa.eu/v1/lists/220000000000",
              "code" : "220000000002",
              "display" : "Invented name part"
            }]
          }
        },
        {
          "part" : "1500 mg",
          "type" : {
            "coding" : [{
              "system" : "https://spor.ema.europa.eu/v1/lists/220000000000",
              "code" : "220000000004",
              "display" : "Strength part"
            }]
          }
        },
        {
          "part" : "Pulver zur Herstellung einer Injektions- oder Infusionslösung",
          "type" : {
            "coding" : [{
              "system" : "https://spor.ema.europa.eu/v1/lists/220000000000",
              "code" : "220000000005",
              "display" : "Pharmaceutical dose form part"
            }]
          }
        }],
        "usage" : [{
          "country" : {
            "coding" : [{
              "system" : "https://spor.ema.europa.eu/v1/lists/100000000002",
              "code" : "100000000330",
              "display" : "Austria"
            }]
          },
          "language" : {
            "coding" : [{
              "system" : "urn:ietf:bcp:47",
              "code" : "de",
              "display" : "German"
            }]
          }
        }]
      }]
    }
  },
  {
    "fullUrl" : "https://hl7-eu.github.io/unicom-ig/RegulatedAuthorization-Curocef-1500mg-Powder-AT-RA",
    "resource" : {
      "resourceType" : "RegulatedAuthorization",
      "id" : "Curocef-1500mg-Powder-AT-RA",
      "meta" : {
        "profile" : ["http://unicom-project.eu/fhir/StructureDefinition/PPLRegulatedAuthorization"]
      },
      "text" : {
        "status" : "generated",
        "div" : "<div xmlns=\"http://www.w3.org/1999/xhtml\"><a name=\"RegulatedAuthorization_Curocef-1500mg-Powder-AT-RA\"> </a><p class=\"res-header-id\"><b>Generated Narrative: RegulatedAuthorization Curocef-1500mg-Powder-AT-RA</b></p><a name=\"Curocef-1500mg-Powder-AT-RA\"> </a><a name=\"hcCurocef-1500mg-Powder-AT-RA\"> </a><a name=\"hcCurocef-1500mg-Powder-AT-RA-en-US\"> </a><p><b>identifier</b>: 16569</p><p><b>subject</b>: <a href=\"Bundle-AT-Curocef-1500-Powder.html#MedicinalProductDefinition_Curocef-1500mg-Powder-AT-MPD\">Bundle: type = collection</a></p><p><b>type</b>: <span title=\"Codes:{https://spor.ema.europa.eu/v1/lists/220000000060 220000000061}\">Marketing Authorisation</span></p><p><b>region</b>: <span title=\"Codes:{https://spor.ema.europa.eu/v1/lists/100000000002 100000000330}\">Austria</span></p><p><b>status</b>: <span title=\"Codes:{https://spor.ema.europa.eu/v1/lists/100000072049 100000072099}\">Valid</span></p><p><b>statusDate</b>: 2020-12-12</p><p><b>holder</b>: <a href=\"Bundle-AT-Curocef-1500-Powder.html#Organization_LOC-100000450\">Bundle: type = collection</a></p></div>"
      },
      "identifier" : [{
        "value" : "16569"
      }],
      "subject" : [{
        "reference" : "MedicinalProductDefinition/Curocef-1500mg-Powder-AT-MPD"
      }],
      "type" : {
        "coding" : [{
          "system" : "https://spor.ema.europa.eu/v1/lists/220000000060",
          "code" : "220000000061",
          "display" : "Marketing Authorisation"
        }]
      },
      "region" : [{
        "coding" : [{
          "system" : "https://spor.ema.europa.eu/v1/lists/100000000002",
          "code" : "100000000330",
          "display" : "Austria"
        }]
      }],
      "status" : {
        "coding" : [{
          "system" : "https://spor.ema.europa.eu/v1/lists/100000072049",
          "code" : "100000072099",
          "display" : "Valid"
        }]
      },
      "statusDate" : "2020-12-12",
      "holder" : {
        "reference" : "Organization/LOC-100000450"
      }
    }
  },
  {
    "fullUrl" : "https://hl7-eu.github.io/unicom-ig/Organization-LOC-100000450",
    "resource" : {
      "resourceType" : "Organization",
      "id" : "LOC-100000450",
      "meta" : {
        "profile" : ["http://unicom-project.eu/fhir/StructureDefinition/PPLOrganization"]
      },
      "text" : {
        "status" : "generated",
        "div" : "<div xmlns=\"http://www.w3.org/1999/xhtml\"><a name=\"Organization_LOC-100000450\"> </a><p class=\"res-header-id\"><b>Generated Narrative: Organization LOC-100000450</b></p><a name=\"LOC-100000450\"> </a><a name=\"hcLOC-100000450\"> </a><a name=\"hcLOC-100000450-en-US\"> </a><p><b>identifier</b>: <code>https://spor.ema.europa.eu/v1/locations</code>/ORG-100000546</p><p><b>name</b>: Sandoz GmbH</p></div>"
      },
      "identifier" : [{
        "system" : "https://spor.ema.europa.eu/v1/locations",
        "value" : "ORG-100000546"
      }],
      "name" : "Sandoz GmbH"
    }
  },
  {
    "fullUrl" : "https://hl7-eu.github.io/unicom-ig/AdministrableProductDefinition-Curocef-1500mg-Powder-AT-APD",
    "resource" : {
      "resourceType" : "AdministrableProductDefinition",
      "id" : "Curocef-1500mg-Powder-AT-APD",
      "meta" : {
        "profile" : ["http://unicom-project.eu/fhir/StructureDefinition/PPLAdministrableProductDefinition"]
      },
      "text" : {
        "status" : "generated",
        "div" : "<div xmlns=\"http://www.w3.org/1999/xhtml\"><a name=\"AdministrableProductDefinition_Curocef-1500mg-Powder-AT-APD\"> </a><p class=\"res-header-id\"><b>Generated Narrative: AdministrableProductDefinition Curocef-1500mg-Powder-AT-APD</b></p><a name=\"Curocef-1500mg-Powder-AT-APD\"> </a><a name=\"hcCurocef-1500mg-Powder-AT-APD\"> </a><a name=\"hcCurocef-1500mg-Powder-AT-APD-en-US\"> </a><p><b>status</b>: Active</p><p><b>formOf</b>: <a href=\"Bundle-AT-Curocef-1500-Powder.html#MedicinalProductDefinition_Curocef-1500mg-Powder-AT-MPD\">Bundle: type = collection</a></p><p><b>administrableDoseForm</b>: <span title=\"Codes:{https://spor.ema.europa.eu/v1/lists/200000000004 100000074038}\">Solution for injection/infusion</span></p><p><b>unitOfPresentation</b>: <span title=\"Codes:{https://spor.ema.europa.eu/v1/lists/200000000014 200000002164}\">Ampoule</span></p><p><b>producedFrom</b>: <a href=\"Bundle-AT-Curocef-1500-Powder.html#ManufacturedItemDefinition_Curocef-1500mg-Powder-AT-MID\">Bundle: type = collection</a></p><h3>RouteOfAdministrations</h3><table class=\"grid\"><tr><td style=\"display: none\">-</td><td><b>Code</b></td></tr><tr><td style=\"display: none\">*</td><td><span title=\"Codes:{https://spor.ema.europa.eu/v1/lists/100000073345 100000073600}, {https://spor.ema.europa.eu/v1/lists/100000073345 100000073611}\">Intramuscular use</span></td></tr></table></div>"
      },
      "status" : "active",
      "formOf" : [{
        "reference" : "MedicinalProductDefinition/Curocef-1500mg-Powder-AT-MPD"
      }],
      "administrableDoseForm" : {
        "coding" : [{
          "system" : "https://spor.ema.europa.eu/v1/lists/200000000004",
          "code" : "100000074038",
          "display" : "Solution for injection/infusion"
        }]
      },
      "unitOfPresentation" : {
        "coding" : [{
          "system" : "https://spor.ema.europa.eu/v1/lists/200000000014",
          "code" : "200000002164",
          "display" : "Ampoule"
        }]
      },
      "producedFrom" : [{
        "reference" : "ManufacturedItemDefinition/Curocef-1500mg-Powder-AT-MID"
      }],
      "routeOfAdministration" : [{
        "code" : {
          "coding" : [{
            "system" : "https://spor.ema.europa.eu/v1/lists/100000073345",
            "code" : "100000073600",
            "display" : "Intramuscular use"
          },
          {
            "system" : "https://spor.ema.europa.eu/v1/lists/100000073345",
            "code" : "100000073611",
            "display" : "Intravenous use"
          }]
        }
      }]
    }
  },
  {
    "fullUrl" : "https://hl7-eu.github.io/unicom-ig/PackagedProductDefinition-Curocef-1500mg-Powder-AT-PPD-128827002",
    "resource" : {
      "resourceType" : "PackagedProductDefinition",
      "id" : "Curocef-1500mg-Powder-AT-PPD-128827002",
      "meta" : {
        "profile" : ["http://unicom-project.eu/fhir/StructureDefinition/PPLPackagedProductDefinition"]
      },
      "text" : {
        "status" : "generated",
        "div" : "<div xmlns=\"http://www.w3.org/1999/xhtml\"><a name=\"PackagedProductDefinition_Curocef-1500mg-Powder-AT-PPD-128827002\"> </a><p class=\"res-header-id\"><b>Generated Narrative: PackagedProductDefinition Curocef-1500mg-Powder-AT-PPD-128827002</b></p><a name=\"Curocef-1500mg-Powder-AT-PPD-128827002\"> </a><a name=\"hcCurocef-1500mg-Powder-AT-PPD-128827002\"> </a><a name=\"hcCurocef-1500mg-Powder-AT-PPD-128827002-en-US\"> </a><p><b>identifier</b>: <code>http://ema.europa.eu/example/pcid</code>/AT-100000450-16569-128827002</p><p><b>packageFor</b>: <a href=\"Bundle-AT-Curocef-1500-Powder.html#MedicinalProductDefinition_Curocef-1500mg-Powder-AT-MPD\">Bundle: type = collection</a></p><p><b>containedItemQuantity</b>: 5 Ampoule<span style=\"background: LightGoldenRodYellow\"> (Details: Unit of Presentation EMA  code200000002164 = 'Ampoule')</span></p><p><b>description</b>: </p><div><p>Farblose Glasampulle mit einem Brombutylkautschuk-Stopfen und Aluminium-Verschluss mit aufklappbarem Kunststoffdeckel, die 1500 mg Cefuroxim (als Cefuroxim-Natrium) Pulver enthält</p>\n</div><h3>MarketingStatuses</h3><table class=\"grid\"><tr><td style=\"display: none\">-</td><td><b>Country</b></td><td><b>Status</b></td><td><b>DateRange</b></td></tr><tr><td style=\"display: none\">*</td><td><span title=\"Codes:{https://spor.ema.europa.eu/v1/lists/100000000002 100000000330}\">Austria</span></td><td><span title=\"Codes:{https://spor.ema.europa.eu/v1/lists/100000072052 100000072083}\">Marketed</span></td><td>1979-09-13 --&gt; (ongoing)</td></tr></table><blockquote><p><b>packaging</b></p><p><b>type</b>: <span title=\"Codes:{https://spor.ema.europa.eu/v1/lists/100000073346 100000073498}\">Box</span></p><p><b>quantity</b>: 1</p><p><b>material</b>: <span title=\"Codes:{https://spor.ema.europa.eu/v1/lists/200000003199 200000003529}\">Cardboard</span></p><blockquote><p><b>packaging</b></p></blockquote></blockquote></div>"
      },
      "identifier" : [{
        "system" : "http://ema.europa.eu/example/pcid",
        "value" : "AT-100000450-16569-128827002"
      }],
      "packageFor" : [{
        "reference" : "MedicinalProductDefinition/Curocef-1500mg-Powder-AT-MPD"
      }],
      "containedItemQuantity" : [{
        "value" : 5,
        "unit" : "Ampoule",
        "system" : "https://spor.ema.europa.eu/v1/lists/200000000014",
        "code" : "200000002164"
      }],
      "description" : "Farblose Glasampulle mit einem Brombutylkautschuk-Stopfen und Aluminium-Verschluss mit aufklappbarem Kunststoffdeckel, die 1500 mg Cefuroxim (als Cefuroxim-Natrium) Pulver enthält",
      "marketingStatus" : [{
        "country" : {
          "coding" : [{
            "system" : "https://spor.ema.europa.eu/v1/lists/100000000002",
            "code" : "100000000330",
            "display" : "Austria"
          }]
        },
        "status" : {
          "coding" : [{
            "system" : "https://spor.ema.europa.eu/v1/lists/100000072052",
            "code" : "100000072083",
            "display" : "Marketed"
          }]
        },
        "dateRange" : {
          "start" : "1979-09-13"
        }
      }],
      "packaging" : {
        "type" : {
          "coding" : [{
            "system" : "https://spor.ema.europa.eu/v1/lists/100000073346",
            "code" : "100000073498",
            "display" : "Box"
          }]
        },
        "quantity" : 1,
        "material" : [{
          "coding" : [{
            "system" : "https://spor.ema.europa.eu/v1/lists/200000003199",
            "code" : "200000003529",
            "display" : "Cardboard"
          }]
        }],
        "packaging" : [{
          "type" : {
            "coding" : [{
              "system" : "https://spor.ema.europa.eu/v1/lists/100000073346",
              "code" : "100000073490",
              "display" : "Ampoule"
            }]
          },
          "quantity" : 1,
          "material" : [{
            "coding" : [{
              "system" : "https://spor.ema.europa.eu/v1/lists/200000003199",
              "code" : "200000003204",
              "display" : "Glass type I"
            }]
          }],
          "containedItem" : [{
            "item" : {
              "reference" : {
                "reference" : "ManufacturedItemDefinition/Curocef-1500mg-Powder-AT-MID"
              }
            },
            "amount" : {
              "value" : 5,
              "unit" : "Ampoule",
              "system" : "https://spor.ema.europa.eu/v1/lists/200000000014",
              "code" : "200000002164"
            }
          }]
        }]
      }
    }
  },
  {
    "fullUrl" : "https://hl7-eu.github.io/unicom-ig/PackagedProductDefinition-Curocef-1500mg-Powder-AT-PPD-128827001",
    "resource" : {
      "resourceType" : "PackagedProductDefinition",
      "id" : "Curocef-1500mg-Powder-AT-PPD-128827001",
      "meta" : {
        "profile" : ["http://unicom-project.eu/fhir/StructureDefinition/PPLPackagedProductDefinition"]
      },
      "text" : {
        "status" : "generated",
        "div" : "<div xmlns=\"http://www.w3.org/1999/xhtml\"><a name=\"PackagedProductDefinition_Curocef-1500mg-Powder-AT-PPD-128827001\"> </a><p class=\"res-header-id\"><b>Generated Narrative: PackagedProductDefinition Curocef-1500mg-Powder-AT-PPD-128827001</b></p><a name=\"Curocef-1500mg-Powder-AT-PPD-128827001\"> </a><a name=\"hcCurocef-1500mg-Powder-AT-PPD-128827001\"> </a><a name=\"hcCurocef-1500mg-Powder-AT-PPD-128827001-en-US\"> </a><p><b>identifier</b>: <code>http://ema.europa.eu/example/pcid</code>/AT-100000450-16569-128827001</p><p><b>packageFor</b>: <a href=\"Bundle-AT-Curocef-1500-Powder.html#MedicinalProductDefinition_Curocef-1500mg-Powder-AT-MPD\">Bundle: type = collection</a></p><p><b>containedItemQuantity</b>: 1 Ampoule<span style=\"background: LightGoldenRodYellow\"> (Details: Unit of Presentation EMA  code200000002164 = 'Ampoule')</span></p><p><b>description</b>: </p><div><p>Farblose Glasampulle mit einem Brombutylkautschuk-Stopfen und Aluminium-Verschluss mit aufklappbarem Kunststoffdeckel, die 1500 mg Cefuroxim (als Cefuroxim-Natrium) Pulver enthält</p>\n</div><h3>MarketingStatuses</h3><table class=\"grid\"><tr><td style=\"display: none\">-</td><td><b>Country</b></td><td><b>Status</b></td><td><b>DateRange</b></td></tr><tr><td style=\"display: none\">*</td><td><span title=\"Codes:{https://spor.ema.europa.eu/v1/lists/100000000002 100000000330}\">Austria</span></td><td><span title=\"Codes:{https://spor.ema.europa.eu/v1/lists/100000072052 100000072074}\">Not Marketed</span></td><td>1979-09-13 --&gt; (ongoing)</td></tr></table><blockquote><p><b>packaging</b></p><p><b>type</b>: <span title=\"Codes:{https://spor.ema.europa.eu/v1/lists/100000073346 100000073498}\">Box</span></p><p><b>quantity</b>: 1</p><p><b>material</b>: <span title=\"Codes:{https://spor.ema.europa.eu/v1/lists/200000003199 200000003529}\">Cardboard</span></p><blockquote><p><b>packaging</b></p></blockquote></blockquote></div>"
      },
      "identifier" : [{
        "system" : "http://ema.europa.eu/example/pcid",
        "value" : "AT-100000450-16569-128827001"
      }],
      "packageFor" : [{
        "reference" : "MedicinalProductDefinition/Curocef-1500mg-Powder-AT-MPD"
      }],
      "containedItemQuantity" : [{
        "value" : 1,
        "unit" : "Ampoule",
        "system" : "https://spor.ema.europa.eu/v1/lists/200000000014",
        "code" : "200000002164"
      }],
      "description" : "Farblose Glasampulle mit einem Brombutylkautschuk-Stopfen und Aluminium-Verschluss mit aufklappbarem Kunststoffdeckel, die 1500 mg Cefuroxim (als Cefuroxim-Natrium) Pulver enthält",
      "marketingStatus" : [{
        "country" : {
          "coding" : [{
            "system" : "https://spor.ema.europa.eu/v1/lists/100000000002",
            "code" : "100000000330",
            "display" : "Austria"
          }]
        },
        "status" : {
          "coding" : [{
            "system" : "https://spor.ema.europa.eu/v1/lists/100000072052",
            "code" : "100000072074",
            "display" : "Not Marketed"
          }]
        },
        "dateRange" : {
          "start" : "1979-09-13"
        }
      }],
      "packaging" : {
        "type" : {
          "coding" : [{
            "system" : "https://spor.ema.europa.eu/v1/lists/100000073346",
            "code" : "100000073498",
            "display" : "Box"
          }]
        },
        "quantity" : 1,
        "material" : [{
          "coding" : [{
            "system" : "https://spor.ema.europa.eu/v1/lists/200000003199",
            "code" : "200000003529",
            "display" : "Cardboard"
          }]
        }],
        "packaging" : [{
          "type" : {
            "coding" : [{
              "system" : "https://spor.ema.europa.eu/v1/lists/100000073346",
              "code" : "100000073490",
              "display" : "Ampoule"
            }]
          },
          "quantity" : 1,
          "material" : [{
            "coding" : [{
              "system" : "https://spor.ema.europa.eu/v1/lists/200000003199",
              "code" : "200000003204",
              "display" : "Glass type I"
            }]
          }],
          "containedItem" : [{
            "item" : {
              "reference" : {
                "reference" : "ManufacturedItemDefinition/Curocef-1500mg-Powder-AT-MID"
              }
            },
            "amount" : {
              "value" : 1,
              "unit" : "Ampoule",
              "system" : "https://spor.ema.europa.eu/v1/lists/200000000014",
              "code" : "200000002164"
            }
          }]
        }]
      }
    }
  },
  {
    "fullUrl" : "https://hl7-eu.github.io/unicom-ig/ManufacturedItemDefinition-Curocef-1500mg-Powder-AT-MID",
    "resource" : {
      "resourceType" : "ManufacturedItemDefinition",
      "id" : "Curocef-1500mg-Powder-AT-MID",
      "meta" : {
        "profile" : ["http://unicom-project.eu/fhir/StructureDefinition/PPLManufacturedItemDefinition"]
      },
      "text" : {
        "status" : "generated",
        "div" : "<div xmlns=\"http://www.w3.org/1999/xhtml\"><a name=\"ManufacturedItemDefinition_Curocef-1500mg-Powder-AT-MID\"> </a><p class=\"res-header-id\"><b>Generated Narrative: ManufacturedItemDefinition Curocef-1500mg-Powder-AT-MID</b></p><a name=\"Curocef-1500mg-Powder-AT-MID\"> </a><a name=\"hcCurocef-1500mg-Powder-AT-MID\"> </a><a name=\"hcCurocef-1500mg-Powder-AT-MID-en-US\"> </a><p><b>status</b>: Active</p><p><b>manufacturedDoseForm</b>: <span title=\"Codes:{https://spor.ema.europa.eu/v1/lists/200000000004 100000116186}\">Powder for solution for injection/infusion</span></p><p><b>unitOfPresentation</b>: <span title=\"Codes:{https://spor.ema.europa.eu/v1/lists/200000000014 200000002164}\">Ampoule</span></p></div>"
      },
      "status" : "active",
      "manufacturedDoseForm" : {
        "coding" : [{
          "system" : "https://spor.ema.europa.eu/v1/lists/200000000004",
          "code" : "100000116186",
          "display" : "Powder for solution for injection/infusion"
        }]
      },
      "unitOfPresentation" : {
        "coding" : [{
          "system" : "https://spor.ema.europa.eu/v1/lists/200000000014",
          "code" : "200000002164",
          "display" : "Ampoule"
        }]
      }
    }
  },
  {
    "fullUrl" : "https://hl7-eu.github.io/unicom-ig/Ingredient-Curocef-1500mg-Powder-AT-Ingredient",
    "resource" : {
      "resourceType" : "Ingredient",
      "id" : "Curocef-1500mg-Powder-AT-Ingredient",
      "meta" : {
        "profile" : ["http://unicom-project.eu/fhir/StructureDefinition/PPLIngredient"]
      },
      "text" : {
        "status" : "generated",
        "div" : "<div xmlns=\"http://www.w3.org/1999/xhtml\"><a name=\"Ingredient_Curocef-1500mg-Powder-AT-Ingredient\"> </a><p class=\"res-header-id\"><b>Generated Narrative: Ingredient Curocef-1500mg-Powder-AT-Ingredient</b></p><a name=\"Curocef-1500mg-Powder-AT-Ingredient\"> </a><a name=\"hcCurocef-1500mg-Powder-AT-Ingredient\"> </a><a name=\"hcCurocef-1500mg-Powder-AT-Ingredient-en-US\"> </a><p><b>status</b>: Active</p><p><b>for</b>: </p><ul><li><a href=\"Bundle-AT-Curocef-1500-Powder.html#MedicinalProductDefinition_Curocef-1500mg-Powder-AT-MPD\">Bundle: type = collection</a></li><li><a href=\"Bundle-AT-Curocef-1500-Powder.html#ManufacturedItemDefinition_Curocef-1500mg-Powder-AT-MID\">Bundle: type = collection</a></li><li><a href=\"Bundle-AT-Curocef-1500-Powder.html#AdministrableProductDefinition_Curocef-1500mg-Powder-AT-APD\">Bundle: type = collection</a></li></ul><p><b>role</b>: <span title=\"Codes:{https://spor.ema.europa.eu/v1/lists/100000072050 100000072072}\">Active</span></p><blockquote><p><b>substance</b></p><h3>Codes</h3><table class=\"grid\"><tr><td style=\"display: none\">-</td><td><b>Concept</b></td></tr><tr><td style=\"display: none\">*</td><td><span title=\"Codes:{https://spor.ema.europa.eu/v2/SubstanceDefinition 100000091436}\">cefuroxime sodium</span></td></tr></table><blockquote><p><b>strength</b></p><p><b>presentation</b>: 1578 milligram(s)<span style=\"background: LightGoldenRodYellow\"> (Details: Unit of Measurement EMA  code10000100000110655 = '10000100000110655')</span>/1 Ampoule<span style=\"background: LightGoldenRodYellow\"> (Details: Unit of Presentation EMA  code200000002164 = 'Ampoule')</span></p><blockquote><p><b>referenceStrength</b></p><h3>Substances</h3><table class=\"grid\"><tr><td style=\"display: none\">-</td><td><b>Concept</b></td></tr><tr><td style=\"display: none\">*</td><td><span title=\"Codes:{https://spor.ema.europa.eu/v2/SubstanceDefinition 100000092667}\">cefuroxime</span></td></tr></table><p><b>strength</b>: 1500 milligram(s)<span style=\"background: LightGoldenRodYellow\"> (Details: Unit of Measurement EMA  code10000100000110655 = '10000100000110655')</span>/1 Ampoule<span style=\"background: LightGoldenRodYellow\"> (Details: Unit of Presentation EMA  code200000002164 = 'Ampoule')</span></p></blockquote></blockquote></blockquote></div>"
      },
      "status" : "active",
      "for" : [{
        "reference" : "MedicinalProductDefinition/Curocef-1500mg-Powder-AT-MPD"
      },
      {
        "reference" : "ManufacturedItemDefinition/Curocef-1500mg-Powder-AT-MID"
      },
      {
        "reference" : "AdministrableProductDefinition/Curocef-1500mg-Powder-AT-APD"
      }],
      "role" : {
        "coding" : [{
          "system" : "https://spor.ema.europa.eu/v1/lists/100000072050",
          "code" : "100000072072",
          "display" : "Active"
        }]
      },
      "substance" : {
        "code" : {
          "concept" : {
            "coding" : [{
              "system" : "https://spor.ema.europa.eu/v2/SubstanceDefinition",
              "code" : "100000091436",
              "display" : "cefuroxime sodium"
            }]
          }
        },
        "strength" : [{
          "presentationRatio" : {
            "numerator" : {
              "value" : 1578,
              "unit" : "milligram(s)",
              "system" : "https://spor.ema.europa.eu/v1/lists/100000110633",
              "code" : "10000100000110655"
            },
            "denominator" : {
              "value" : 1,
              "unit" : "Ampoule",
              "system" : "https://spor.ema.europa.eu/v1/lists/200000000014",
              "code" : "200000002164"
            }
          },
          "referenceStrength" : [{
            "substance" : {
              "concept" : {
                "coding" : [{
                  "system" : "https://spor.ema.europa.eu/v2/SubstanceDefinition",
                  "code" : "100000092667",
                  "display" : "cefuroxime"
                }]
              }
            },
            "strengthRatio" : {
              "numerator" : {
                "value" : 1500,
                "unit" : "milligram(s)",
                "system" : "https://spor.ema.europa.eu/v1/lists/100000110633",
                "code" : "10000100000110655"
              },
              "denominator" : {
                "value" : 1,
                "unit" : "Ampoule",
                "system" : "https://spor.ema.europa.eu/v1/lists/200000000014",
                "code" : "200000002164"
              }
            }
          }]
        }]
      }
    }
  }]
}