<?xml version="1.0" encoding="UTF-8"?>

<Bundle xmlns="http://hl7.org/fhir">
  <id value="005-CanifugCremolum-EE-FullProduct"/>
  <type value="collection"/>
  <entry>
    <fullUrl value="https://hl7-eu.github.io/unicom-ig/branches/mpd-r4b/MedicinalProductDefinition-CanifugCremolum-EE-MPD"/>
    <resource>
      <MedicinalProductDefinition>
        <id value="CanifugCremolum-EE-MPD"/>
        <meta>
          <profile value="http://unicom-project.eu/fhir/StructureDefinition/PPLMedicinalProductDefinition"/>
        </meta>
        <text>
          <status value="generated"/><div xmlns="http://www.w3.org/1999/xhtml"><a name="MedicinalProductDefinition_CanifugCremolum-EE-MPD"> </a><p class="res-header-id"><b>Generated Narrative: MedicinalProductDefinition CanifugCremolum-EE-MPD</b></p><a name="CanifugCremolum-EE-MPD"> </a><a name="hcCanifugCremolum-EE-MPD"> </a><a name="hcCanifugCremolum-EE-MPD-en-US"> </a><p><b>identifier</b>: <code>http://ema.europa.eu/fhir/mpId</code>/EE-100004795-10280, <code>http://ema.europa.eu/fhir/pmsId</code>/EE00000003</p><p><b>domain</b>: <span title="Codes:{https://spor.ema.europa.eu/v1/lists/100000000004 100000000012}">Human use</span></p><p><b>status</b>: <span title="Codes:{https://spor.ema.europa.eu/v1/lists/200000005003 200000005004}">Current</span></p><p><b>combinedPharmaceuticalDoseForm</b>: <span title="Codes:{https://spor.ema.europa.eu/v1/lists/200000000008 100000173972}">Cream + pessary</span></p><p><b>legalStatusOfSupply</b>: <span title="Codes:{https://spor.ema.europa.eu/v1/lists/100000072051 100000072084}">Medicinal Product subject to medical prescription</span></p><p><b>classification</b>: <span title="Codes:{https://spor.ema.europa.eu/v1/lists/100000093533 100000095693}">clotrimazole</span>, <span title="Codes:{http://www.whocc.no/atc G01AF02}">clotrimazole</span></p><blockquote><p><b>name</b></p><p><b>productName</b>: Canifug Cremolum</p><h3>Parts</h3><table class="grid"><tr><td style="display: none">-</td><td><b>Part</b></td><td><b>Type</b></td></tr><tr><td style="display: none">*</td><td>Canifug Cremolum</td><td><span title="Codes:{https://spor.ema.europa.eu/v1/lists/220000000000 220000000002}">Invented name part</span></td></tr></table><h3>Usages</h3><table class="grid"><tr><td style="display: none">-</td><td><b>Country</b></td><td><b>Language</b></td></tr><tr><td style="display: none">*</td><td><span title="Codes:{https://spor.ema.europa.eu/v1/lists/100000000002 100000000388}">Republic of Estonia</span></td><td><span title="Codes:{urn:ietf:bcp:47 et}">Estonian</span></td></tr></table></blockquote></div>
        </text>
        <identifier>
          <system value="http://ema.europa.eu/fhir/mpId"/>
          <value value="EE-100004795-10280"/>
        </identifier>
        <identifier>
          <system value="http://ema.europa.eu/fhir/pmsId"/>
          <value value="EE00000003"/>
        </identifier>
        <domain>
          <coding>
            <system value="https://spor.ema.europa.eu/v1/lists/100000000004"/>
            <code value="100000000012"/>
            <display value="Human use"/>
          </coding>
        </domain>
        <status>
          <coding>
            <system value="https://spor.ema.europa.eu/v1/lists/200000005003"/>
            <code value="200000005004"/>
            <display value="Current"/>
          </coding>
        </status>
        <combinedPharmaceuticalDoseForm>
          <coding>
            <system value="https://spor.ema.europa.eu/v1/lists/200000000008"/>
            <code value="100000173972"/>
            <display value="Cream + pessary"/>
          </coding>
        </combinedPharmaceuticalDoseForm>
        <legalStatusOfSupply>
          <coding>
            <system value="https://spor.ema.europa.eu/v1/lists/100000072051"/>
            <code value="100000072084"/>
            <display value="Medicinal Product subject to medical prescription"/>
          </coding>
        </legalStatusOfSupply>
        <classification>
          <coding>
            <system value="https://spor.ema.europa.eu/v1/lists/100000093533"/>
            <code value="100000095693"/>
            <display value="clotrimazole"/>
          </coding>
        </classification>
        <classification>
          <coding>
            <system value="http://www.whocc.no/atc"/>
            <code value="G01AF02"/>
            <display value="clotrimazole"/>
          </coding>
        </classification>
        <name>
          <productName value="Canifug Cremolum"/>
          <part>
            <part value="Canifug Cremolum"/>
            <type>
              <coding>
                <system value="https://spor.ema.europa.eu/v1/lists/220000000000"/>
                <code value="220000000002"/>
                <display value="Invented name part"/>
              </coding>
            </type>
          </part>
          <usage>
            <country>
              <coding>
                <system value="https://spor.ema.europa.eu/v1/lists/100000000002"/>
                <code value="100000000388"/>
                <display value="Republic of Estonia"/>
              </coding>
            </country>
            <language>
              <coding>
                <system value="urn:ietf:bcp:47"/>
                <code value="et"/>
                <display value="Estonian"/>
              </coding>
            </language>
          </usage>
        </name>
      </MedicinalProductDefinition>
    </resource>
  </entry>
  <entry>
    <fullUrl value="https://hl7-eu.github.io/unicom-ig/branches/mpd-r4b/RegulatedAuthorization-CanifugCremolum-EE-RA"/>
    <resource>
      <RegulatedAuthorization>
        <id value="CanifugCremolum-EE-RA"/>
        <meta>
          <profile value="http://unicom-project.eu/fhir/StructureDefinition/PPLRegulatedAuthorization"/>
        </meta>
        <text>
          <status value="generated"/><div xmlns="http://www.w3.org/1999/xhtml"><a name="RegulatedAuthorization_CanifugCremolum-EE-RA"> </a><p class="res-header-id"><b>Generated Narrative: RegulatedAuthorization CanifugCremolum-EE-RA</b></p><a name="CanifugCremolum-EE-RA"> </a><a name="hcCanifugCremolum-EE-RA"> </a><a name="hcCanifugCremolum-EE-RA-en-US"> </a><p><b>identifier</b>: 366201</p><p><b>subject</b>: <a href="MedicinalProductDefinition-CanifugCremolum-EE-MPD.html">MedicinalProductDefinition: identifier = http://ema.europa.eu/fhir/mpId#EE-100004795-10280,http://ema.europa.eu/fhir/pmsId#EE00000003; domain = Human use; status = Current; combinedPharmaceuticalDoseForm = Cream + pessary; legalStatusOfSupply = Medicinal Product subject to medical prescription; classification = clotrimazole,clotrimazole</a></p><p><b>type</b>: <span title="Codes:{https://spor.ema.europa.eu/v1/lists/220000000060 220000000061}">Marketing Authorisation</span></p><p><b>region</b>: <span title="Codes:{https://spor.ema.europa.eu/v1/lists/100000000002 100000000388}">Republic of Estonia</span></p><p><b>status</b>: <span title="Codes:{https://spor.ema.europa.eu/v1/lists/100000072049 200000017708}">Valid - Renewed/Varied</span></p><p><b>statusDate</b>: 2011-10-19</p><p><b>holder</b>: <a href="Organization-LOC-100004795-Wolff-Arzneimittel.html">Organization Dr. August Wolff GmbH &amp; Co. KG Arzneimittel</a></p></div>
        </text>
        <identifier>
          <value value="366201"/>
        </identifier>
        <subject>
          <reference value="MedicinalProductDefinition/CanifugCremolum-EE-MPD"/>
        </subject>
        <type>
          <coding>
            <system value="https://spor.ema.europa.eu/v1/lists/220000000060"/>
            <code value="220000000061"/>
            <display value="Marketing Authorisation"/>
          </coding>
        </type>
        <region>
          <coding>
            <system value="https://spor.ema.europa.eu/v1/lists/100000000002"/>
            <code value="100000000388"/>
            <display value="Republic of Estonia"/>
          </coding>
        </region>
        <status>
          <coding>
            <system value="https://spor.ema.europa.eu/v1/lists/100000072049"/>
            <code value="200000017708"/>
            <display value="Valid - Renewed/Varied"/>
          </coding>
        </status>
        <statusDate value="2011-10-19"/>
        <holder>
          <reference value="Organization/LOC-100004795-Wolff-Arzneimittel"/>
        </holder>
      </RegulatedAuthorization>
    </resource>
  </entry>
  <entry>
    <fullUrl value="https://hl7-eu.github.io/unicom-ig/branches/mpd-r4b/Organization-LOC-100004795-Wolff-Arzneimittel"/>
    <resource>
      <Organization>
        <id value="LOC-100004795-Wolff-Arzneimittel"/>
        <meta>
          <profile value="http://unicom-project.eu/fhir/StructureDefinition/PPLOrganization"/>
        </meta>
        <text>
          <status value="generated"/><div xmlns="http://www.w3.org/1999/xhtml"><a name="Organization_LOC-100004795-Wolff-Arzneimittel"> </a><p class="res-header-id"><b>Generated Narrative: Organization LOC-100004795-Wolff-Arzneimittel</b></p><a name="LOC-100004795-Wolff-Arzneimittel"> </a><a name="hcLOC-100004795-Wolff-Arzneimittel"> </a><a name="hcLOC-100004795-Wolff-Arzneimittel-en-US"> </a><p><b>identifier</b>: <code>https://spor.ema.europa.eu/v1/locations</code>/LOC-100004795</p><p><b>name</b>: Dr. August Wolff GmbH &amp; Co. KG Arzneimittel</p></div>
        </text>
        <identifier>
          <system value="https://spor.ema.europa.eu/v1/locations"/>
          <value value="LOC-100004795"/>
        </identifier>
        <name value="Dr. August Wolff GmbH &amp; Co. KG Arzneimittel"/>
      </Organization>
    </resource>
  </entry>
  <entry>
    <fullUrl value="https://hl7-eu.github.io/unicom-ig/branches/mpd-r4b/AdministrableProductDefinition-CanifugCremolum-10mg1g-Cream-EE-APD"/>
    <resource>
      <AdministrableProductDefinition>
        <id value="CanifugCremolum-10mg1g-Cream-EE-APD"/>
        <meta>
          <profile value="http://unicom-project.eu/fhir/StructureDefinition/PPLAdministrableProductDefinition"/>
        </meta>
        <text>
          <status value="generated"/><div xmlns="http://www.w3.org/1999/xhtml"><a name="AdministrableProductDefinition_CanifugCremolum-10mg1g-Cream-EE-APD"> </a><p class="res-header-id"><b>Generated Narrative: AdministrableProductDefinition CanifugCremolum-10mg1g-Cream-EE-APD</b></p><a name="CanifugCremolum-10mg1g-Cream-EE-APD"> </a><a name="hcCanifugCremolum-10mg1g-Cream-EE-APD"> </a><a name="hcCanifugCremolum-10mg1g-Cream-EE-APD-en-US"> </a><p><b>status</b>: Active</p><p><b>formOf</b>: <a href="MedicinalProductDefinition-CanifugCremolum-EE-MPD.html">MedicinalProductDefinition: identifier = http://ema.europa.eu/fhir/mpId#EE-100004795-10280,http://ema.europa.eu/fhir/pmsId#EE00000003; domain = Human use; status = Current; combinedPharmaceuticalDoseForm = Cream + pessary; legalStatusOfSupply = Medicinal Product subject to medical prescription; classification = clotrimazole,clotrimazole</a></p><p><b>administrableDoseForm</b>: <span title="Codes:{https://spor.ema.europa.eu/v1/lists/200000000004 100000073712}">Cream</span></p><p><b>unitOfPresentation</b>: <span title="Codes:{https://spor.ema.europa.eu/v1/lists/200000000014 200000002156}">Tube</span></p><p><b>producedFrom</b>: <a href="ManufacturedItemDefinition-CanifugCremolum-10mg1g-Cream-EE-MID.html">ManufacturedItemDefinition: status = active; manufacturedDoseForm = Cream; unitOfPresentation = Tube</a></p><h3>RouteOfAdministrations</h3><table class="grid"><tr><td style="display: none">-</td><td><b>Code</b></td></tr><tr><td style="display: none">*</td><td><span title="Codes:{https://spor.ema.europa.eu/v1/lists/100000073345 100000073566}">Cutaneous use</span></td></tr></table></div>
        </text>
        <status value="active"/>
        <formOf>
          <reference value="MedicinalProductDefinition/CanifugCremolum-EE-MPD"/>
        </formOf>
        <administrableDoseForm>
          <coding>
            <system value="https://spor.ema.europa.eu/v1/lists/200000000004"/>
            <code value="100000073712"/>
            <display value="Cream"/>
          </coding>
        </administrableDoseForm>
        <unitOfPresentation>
          <coding>
            <system value="https://spor.ema.europa.eu/v1/lists/200000000014"/>
            <code value="200000002156"/>
            <display value="Tube"/>
          </coding>
        </unitOfPresentation>
        <producedFrom>
          <reference value="ManufacturedItemDefinition/CanifugCremolum-10mg1g-Cream-EE-MID"/>
        </producedFrom>
        <routeOfAdministration>
          <code>
            <coding>
              <system value="https://spor.ema.europa.eu/v1/lists/100000073345"/>
              <code value="100000073566"/>
              <display value="Cutaneous use"/>
            </coding>
          </code>
        </routeOfAdministration>
      </AdministrableProductDefinition>
    </resource>
  </entry>
  <entry>
    <fullUrl value="https://hl7-eu.github.io/unicom-ig/branches/mpd-r4b/AdministrableProductDefinition-CanifugCremolum-100mg-Pessary-EE-APD"/>
    <resource>
      <AdministrableProductDefinition>
        <id value="CanifugCremolum-100mg-Pessary-EE-APD"/>
        <meta>
          <profile value="http://unicom-project.eu/fhir/StructureDefinition/PPLAdministrableProductDefinition"/>
        </meta>
        <text>
          <status value="generated"/><div xmlns="http://www.w3.org/1999/xhtml"><a name="AdministrableProductDefinition_CanifugCremolum-100mg-Pessary-EE-APD"> </a><p class="res-header-id"><b>Generated Narrative: AdministrableProductDefinition CanifugCremolum-100mg-Pessary-EE-APD</b></p><a name="CanifugCremolum-100mg-Pessary-EE-APD"> </a><a name="hcCanifugCremolum-100mg-Pessary-EE-APD"> </a><a name="hcCanifugCremolum-100mg-Pessary-EE-APD-en-US"> </a><p><b>status</b>: Active</p><p><b>formOf</b>: <a href="MedicinalProductDefinition-CanifugCremolum-EE-MPD.html">MedicinalProductDefinition: identifier = http://ema.europa.eu/fhir/mpId#EE-100004795-10280,http://ema.europa.eu/fhir/pmsId#EE00000003; domain = Human use; status = Current; combinedPharmaceuticalDoseForm = Cream + pessary; legalStatusOfSupply = Medicinal Product subject to medical prescription; classification = clotrimazole,clotrimazole</a></p><p><b>administrableDoseForm</b>: <span title="Codes:{https://spor.ema.europa.eu/v1/lists/200000000004 100000073815}">Pessary</span></p><p><b>unitOfPresentation</b>: <span title="Codes:{https://spor.ema.europa.eu/v1/lists/200000000014 200000002137}">Pessary</span></p><p><b>producedFrom</b>: <a href="ManufacturedItemDefinition-CanifugCremolum-100mg-Pessary-EE-MID.html">ManufacturedItemDefinition: status = active; manufacturedDoseForm = Pessary; unitOfPresentation = Pessary</a></p><h3>RouteOfAdministrations</h3><table class="grid"><tr><td style="display: none">-</td><td><b>Code</b></td></tr><tr><td style="display: none">*</td><td><span title="Codes:{https://spor.ema.europa.eu/v1/lists/100000073345 100000073639}">Vaginal use</span></td></tr></table></div>
        </text>
        <status value="active"/>
        <formOf>
          <reference value="MedicinalProductDefinition/CanifugCremolum-EE-MPD"/>
        </formOf>
        <administrableDoseForm>
          <coding>
            <system value="https://spor.ema.europa.eu/v1/lists/200000000004"/>
            <code value="100000073815"/>
            <display value="Pessary"/>
          </coding>
        </administrableDoseForm>
        <unitOfPresentation>
          <coding>
            <system value="https://spor.ema.europa.eu/v1/lists/200000000014"/>
            <code value="200000002137"/>
            <display value="Pessary"/>
          </coding>
        </unitOfPresentation>
        <producedFrom>
          <reference value="ManufacturedItemDefinition/CanifugCremolum-100mg-Pessary-EE-MID"/>
        </producedFrom>
        <routeOfAdministration>
          <code>
            <coding>
              <system value="https://spor.ema.europa.eu/v1/lists/100000073345"/>
              <code value="100000073639"/>
              <display value="Vaginal use"/>
            </coding>
          </code>
        </routeOfAdministration>
      </AdministrableProductDefinition>
    </resource>
  </entry>
  <entry>
    <fullUrl value="https://hl7-eu.github.io/unicom-ig/branches/mpd-r4b/ManufacturedItemDefinition-CanifugCremolum-10mg1g-Cream-EE-MID"/>
    <resource>
      <ManufacturedItemDefinition>
        <id value="CanifugCremolum-10mg1g-Cream-EE-MID"/>
        <meta>
          <profile value="http://unicom-project.eu/fhir/StructureDefinition/PPLManufacturedItemDefinition"/>
        </meta>
        <text>
          <status value="generated"/><div xmlns="http://www.w3.org/1999/xhtml"><a name="ManufacturedItemDefinition_CanifugCremolum-10mg1g-Cream-EE-MID"> </a><p class="res-header-id"><b>Generated Narrative: ManufacturedItemDefinition CanifugCremolum-10mg1g-Cream-EE-MID</b></p><a name="CanifugCremolum-10mg1g-Cream-EE-MID"> </a><a name="hcCanifugCremolum-10mg1g-Cream-EE-MID"> </a><a name="hcCanifugCremolum-10mg1g-Cream-EE-MID-en-US"> </a><p><b>status</b>: Active</p><p><b>manufacturedDoseForm</b>: <span title="Codes:{https://spor.ema.europa.eu/v1/lists/200000000004 100000073712}">Cream</span></p><p><b>unitOfPresentation</b>: <span title="Codes:{https://spor.ema.europa.eu/v1/lists/200000000014 200000002156}">Tube</span></p></div>
        </text>
        <status value="active"/>
        <manufacturedDoseForm>
          <coding>
            <system value="https://spor.ema.europa.eu/v1/lists/200000000004"/>
            <code value="100000073712"/>
            <display value="Cream"/>
          </coding>
        </manufacturedDoseForm>
        <unitOfPresentation>
          <coding>
            <system value="https://spor.ema.europa.eu/v1/lists/200000000014"/>
            <code value="200000002156"/>
            <display value="Tube"/>
          </coding>
        </unitOfPresentation>
      </ManufacturedItemDefinition>
    </resource>
  </entry>
  <entry>
    <fullUrl value="https://hl7-eu.github.io/unicom-ig/branches/mpd-r4b/ManufacturedItemDefinition-CanifugCremolum-100mg-Pessary-EE-MID"/>
    <resource>
      <ManufacturedItemDefinition>
        <id value="CanifugCremolum-100mg-Pessary-EE-MID"/>
        <meta>
          <profile value="http://unicom-project.eu/fhir/StructureDefinition/PPLManufacturedItemDefinition"/>
        </meta>
        <text>
          <status value="generated"/><div xmlns="http://www.w3.org/1999/xhtml"><a name="ManufacturedItemDefinition_CanifugCremolum-100mg-Pessary-EE-MID"> </a><p class="res-header-id"><b>Generated Narrative: ManufacturedItemDefinition CanifugCremolum-100mg-Pessary-EE-MID</b></p><a name="CanifugCremolum-100mg-Pessary-EE-MID"> </a><a name="hcCanifugCremolum-100mg-Pessary-EE-MID"> </a><a name="hcCanifugCremolum-100mg-Pessary-EE-MID-en-US"> </a><p><b>status</b>: Active</p><p><b>manufacturedDoseForm</b>: <span title="Codes:{https://spor.ema.europa.eu/v1/lists/200000000004 100000073815}">Pessary</span></p><p><b>unitOfPresentation</b>: <span title="Codes:{https://spor.ema.europa.eu/v1/lists/200000000014 200000002137}">Pessary</span></p></div>
        </text>
        <status value="active"/>
        <manufacturedDoseForm>
          <coding>
            <system value="https://spor.ema.europa.eu/v1/lists/200000000004"/>
            <code value="100000073815"/>
            <display value="Pessary"/>
          </coding>
        </manufacturedDoseForm>
        <unitOfPresentation>
          <coding>
            <system value="https://spor.ema.europa.eu/v1/lists/200000000014"/>
            <code value="200000002137"/>
            <display value="Pessary"/>
          </coding>
        </unitOfPresentation>
      </ManufacturedItemDefinition>
    </resource>
  </entry>
  <entry>
    <fullUrl value="https://hl7-eu.github.io/unicom-ig/branches/mpd-r4b/Ingredient-CanifugCremolum-10mg1g-Cream-EE-I"/>
    <resource>
      <Ingredient>
        <id value="CanifugCremolum-10mg1g-Cream-EE-I"/>
        <meta>
          <profile value="http://unicom-project.eu/fhir/StructureDefinition/PPLIngredient"/>
        </meta>
        <text>
          <status value="generated"/><div xmlns="http://www.w3.org/1999/xhtml"><a name="Ingredient_CanifugCremolum-10mg1g-Cream-EE-I"> </a><p class="res-header-id"><b>Generated Narrative: Ingredient CanifugCremolum-10mg1g-Cream-EE-I</b></p><a name="CanifugCremolum-10mg1g-Cream-EE-I"> </a><a name="hcCanifugCremolum-10mg1g-Cream-EE-I"> </a><a name="hcCanifugCremolum-10mg1g-Cream-EE-I-en-US"> </a><p><b>status</b>: Active</p><p><b>for</b>: </p><ul><li><a href="MedicinalProductDefinition-CanifugCremolum-EE-MPD.html">MedicinalProductDefinition: identifier = http://ema.europa.eu/fhir/mpId#EE-100004795-10280,http://ema.europa.eu/fhir/pmsId#EE00000003; domain = Human use; status = Current; combinedPharmaceuticalDoseForm = Cream + pessary; legalStatusOfSupply = Medicinal Product subject to medical prescription; classification = clotrimazole,clotrimazole</a></li><li><a href="ManufacturedItemDefinition-CanifugCremolum-10mg1g-Cream-EE-MID.html">ManufacturedItemDefinition: status = active; manufacturedDoseForm = Cream; unitOfPresentation = Tube</a></li><li><a href="AdministrableProductDefinition-CanifugCremolum-10mg1g-Cream-EE-APD.html">AdministrableProductDefinition: status = active; administrableDoseForm = Cream; unitOfPresentation = Tube</a></li></ul><p><b>role</b>: <span title="Codes:{https://spor.ema.europa.eu/v1/lists/100000072050 100000072072}">Active</span></p><blockquote><p><b>substance</b></p><h3>Codes</h3><table class="grid"><tr><td style="display: none">-</td><td><b>Concept</b></td></tr><tr><td style="display: none">*</td><td><span title="Codes:{https://spor.ema.europa.eu/v2/SubstanceDefinition 100000092074}">CLOTRIMAZOLE</span></td></tr></table><h3>Strengths</h3><table class="grid"><tr><td style="display: none">-</td><td><b>Concentration[x]</b></td></tr><tr><td style="display: none">*</td><td>10 milligram(s)<span style="background: LightGoldenRodYellow"> (Details: Unit of Measurement EMA  code100000110655 = 'milligram(s)')</span>/1 gram(s)<span style="background: LightGoldenRodYellow"> (Details: Unit of Measurement EMA  code100000110654 = 'gram(s)')</span></td></tr></table></blockquote></div>
        </text>
        <status value="active"/>
        <for>
          <reference value="MedicinalProductDefinition/CanifugCremolum-EE-MPD"/>
        </for>
        <for>
          <reference value="ManufacturedItemDefinition/CanifugCremolum-10mg1g-Cream-EE-MID"/>
        </for>
        <for>
          <reference value="AdministrableProductDefinition/CanifugCremolum-10mg1g-Cream-EE-APD"/>
        </for>
        <role>
          <coding>
            <system value="https://spor.ema.europa.eu/v1/lists/100000072050"/>
            <code value="100000072072"/>
            <display value="Active"/>
          </coding>
        </role>
        <substance>
          <code>
            <concept>
              <coding>
                <system value="https://spor.ema.europa.eu/v2/SubstanceDefinition"/>
                <code value="100000092074"/>
                <display value="CLOTRIMAZOLE"/>
              </coding>
            </concept>
          </code>
          <strength>
            <concentrationRatio>
              <numerator>
                <value value="10"/>
                <unit value="milligram(s)"/>
                <system value="https://spor.ema.europa.eu/v1/lists/100000110633"/>
                <code value="100000110655"/>
              </numerator>
              <denominator>
                <value value="1"/>
                <unit value="gram(s)"/>
                <system value="https://spor.ema.europa.eu/v1/lists/100000110633"/>
                <code value="100000110654"/>
              </denominator>
            </concentrationRatio>
          </strength>
        </substance>
      </Ingredient>
    </resource>
  </entry>
  <entry>
    <fullUrl value="https://hl7-eu.github.io/unicom-ig/branches/mpd-r4b/Ingredient-CanifugCremolum-100mg-Pessary-EE-I"/>
    <resource>
      <Ingredient>
        <id value="CanifugCremolum-100mg-Pessary-EE-I"/>
        <meta>
          <profile value="http://unicom-project.eu/fhir/StructureDefinition/PPLIngredient"/>
        </meta>
        <text>
          <status value="generated"/><div xmlns="http://www.w3.org/1999/xhtml"><a name="Ingredient_CanifugCremolum-100mg-Pessary-EE-I"> </a><p class="res-header-id"><b>Generated Narrative: Ingredient CanifugCremolum-100mg-Pessary-EE-I</b></p><a name="CanifugCremolum-100mg-Pessary-EE-I"> </a><a name="hcCanifugCremolum-100mg-Pessary-EE-I"> </a><a name="hcCanifugCremolum-100mg-Pessary-EE-I-en-US"> </a><p><b>status</b>: Active</p><p><b>for</b>: </p><ul><li><a href="MedicinalProductDefinition-CanifugCremolum-EE-MPD.html">MedicinalProductDefinition: identifier = http://ema.europa.eu/fhir/mpId#EE-100004795-10280,http://ema.europa.eu/fhir/pmsId#EE00000003; domain = Human use; status = Current; combinedPharmaceuticalDoseForm = Cream + pessary; legalStatusOfSupply = Medicinal Product subject to medical prescription; classification = clotrimazole,clotrimazole</a></li><li><a href="ManufacturedItemDefinition-CanifugCremolum-100mg-Pessary-EE-MID.html">ManufacturedItemDefinition: status = active; manufacturedDoseForm = Pessary; unitOfPresentation = Pessary</a></li><li><a href="AdministrableProductDefinition-CanifugCremolum-100mg-Pessary-EE-APD.html">AdministrableProductDefinition: status = active; administrableDoseForm = Pessary; unitOfPresentation = Pessary</a></li></ul><p><b>role</b>: <span title="Codes:{https://spor.ema.europa.eu/v1/lists/100000072050 100000072072}">Active</span></p><blockquote><p><b>substance</b></p><h3>Codes</h3><table class="grid"><tr><td style="display: none">-</td><td><b>Concept</b></td></tr><tr><td style="display: none">*</td><td><span title="Codes:{https://spor.ema.europa.eu/v2/SubstanceDefinition 100000092074}">CLOTRIMAZOLE</span></td></tr></table><h3>Strengths</h3><table class="grid"><tr><td style="display: none">-</td><td><b>Presentation[x]</b></td></tr><tr><td style="display: none">*</td><td>100 milligram(s)<span style="background: LightGoldenRodYellow"> (Details: Unit of Measurement EMA  code100000110655 = 'milligram(s)')</span>/1 Pessary<span style="background: LightGoldenRodYellow"> (Details: Unit of Presentation EMA  code200000002137 = 'Pessary')</span></td></tr></table></blockquote></div>
        </text>
        <status value="active"/>
        <for>
          <reference value="MedicinalProductDefinition/CanifugCremolum-EE-MPD"/>
        </for>
        <for>
          <reference value="ManufacturedItemDefinition/CanifugCremolum-100mg-Pessary-EE-MID"/>
        </for>
        <for>
          <reference value="AdministrableProductDefinition/CanifugCremolum-100mg-Pessary-EE-APD"/>
        </for>
        <role>
          <coding>
            <system value="https://spor.ema.europa.eu/v1/lists/100000072050"/>
            <code value="100000072072"/>
            <display value="Active"/>
          </coding>
        </role>
        <substance>
          <code>
            <concept>
              <coding>
                <system value="https://spor.ema.europa.eu/v2/SubstanceDefinition"/>
                <code value="100000092074"/>
                <display value="CLOTRIMAZOLE"/>
              </coding>
            </concept>
          </code>
          <strength>
            <presentationRatio>
              <numerator>
                <value value="100"/>
                <unit value="milligram(s)"/>
                <system value="https://spor.ema.europa.eu/v1/lists/100000110633"/>
                <code value="100000110655"/>
              </numerator>
              <denominator>
                <value value="1"/>
                <unit value="Pessary"/>
                <system value="https://spor.ema.europa.eu/v1/lists/200000000014"/>
                <code value="200000002137"/>
              </denominator>
            </presentationRatio>
          </strength>
        </substance>
      </Ingredient>
    </resource>
  </entry>
  <entry>
    <fullUrl value="https://hl7-eu.github.io/unicom-ig/branches/mpd-r4b/PackagedProductDefinition-CanifugCremolum-EE-PPD-1033692"/>
    <resource>
      <PackagedProductDefinition>
        <id value="CanifugCremolum-EE-PPD-1033692"/>
        <meta>
          <profile value="http://unicom-project.eu/fhir/StructureDefinition/PPLPackagedProductDefinition"/>
        </meta>
        <text>
          <status value="generated"/><div xmlns="http://www.w3.org/1999/xhtml"><a name="PackagedProductDefinition_CanifugCremolum-EE-PPD-1033692"> </a><p class="res-header-id"><b>Generated Narrative: PackagedProductDefinition CanifugCremolum-EE-PPD-1033692</b></p><a name="CanifugCremolum-EE-PPD-1033692"> </a><a name="hcCanifugCremolum-EE-PPD-1033692"> </a><a name="hcCanifugCremolum-EE-PPD-1033692-en-US"> </a><p><b>identifier</b>: <code>http://ema.europa.eu/example/pcid</code>/EE-100004795-10280-1033692</p><p><b>packageFor</b>: <a href="MedicinalProductDefinition-CanifugCremolum-EE-MPD.html">MedicinalProductDefinition: identifier = http://ema.europa.eu/fhir/mpId#EE-100004795-10280,http://ema.europa.eu/fhir/pmsId#EE00000003; domain = Human use; status = Current; combinedPharmaceuticalDoseForm = Cream + pessary; legalStatusOfSupply = Medicinal Product subject to medical prescription; classification = clotrimazole,clotrimazole</a></p><p><b>containedItemQuantity</b>: 6 Pessary<span style="background: LightGoldenRodYellow"> (Details: Unit of Presentation EMA  code200000002137 = 'Pessary')</span>, 1 Tube<span style="background: LightGoldenRodYellow"> (Details: Unit of Presentation EMA  code200000002156 = 'Tube')</span></p><p><b>description</b>: </p><div><p>Alu/PE-fooliumist valmistatud ribapakend, mis on asetatud väliskarpi. Kreem on alumiiniumtuubis ja omakorda pappkarbis. Kombineeritud pakend sisaldab: 6 vaginaalsuposiiti ja 20 g kreemi</p>
</div><h3>MarketingStatuses</h3><table class="grid"><tr><td style="display: none">-</td><td><b>Country</b></td><td><b>Status</b></td></tr><tr><td style="display: none">*</td><td><span title="Codes:{https://spor.ema.europa.eu/v1/lists/100000000002 100000000388}">Republic of Estonia</span></td><td><span title="Codes:{https://spor.ema.europa.eu/v1/lists/100000072052 100000072083}">Marketed</span></td></tr></table><blockquote><p><b>packaging</b></p><p><b>type</b>: <span title="Codes:{https://spor.ema.europa.eu/v1/lists/100000073346 100000073498}">Box</span></p><p><b>quantity</b>: 1</p><p><b>material</b>: <span title="Codes:{https://spor.ema.europa.eu/v1/lists/200000003199 200000003529}">Cardboard</span></p><blockquote><p><b>packaging</b></p></blockquote><blockquote><p><b>packaging</b></p></blockquote></blockquote></div>
        </text>
        <identifier>
          <system value="http://ema.europa.eu/example/pcid"/>
          <value value="EE-100004795-10280-1033692"/>
        </identifier>
        <packageFor>
          <reference value="MedicinalProductDefinition/CanifugCremolum-EE-MPD"/>
        </packageFor>
        <containedItemQuantity>
          <value value="6"/>
          <unit value="Pessary"/>
          <system value="https://spor.ema.europa.eu/v1/lists/200000000014"/>
          <code value="200000002137"/>
        </containedItemQuantity>
        <containedItemQuantity>
          <value value="1"/>
          <unit value="Tube"/>
          <system value="https://spor.ema.europa.eu/v1/lists/200000000014"/>
          <code value="200000002156"/>
        </containedItemQuantity>
        <description value="Alu/PE-fooliumist valmistatud ribapakend, mis on asetatud väliskarpi. Kreem on alumiiniumtuubis ja omakorda pappkarbis. Kombineeritud pakend sisaldab: 6 vaginaalsuposiiti ja 20 g kreemi"/>
        <marketingStatus>
          <country>
            <coding>
              <system value="https://spor.ema.europa.eu/v1/lists/100000000002"/>
              <code value="100000000388"/>
              <display value="Republic of Estonia"/>
            </coding>
          </country>
          <status>
            <coding>
              <system value="https://spor.ema.europa.eu/v1/lists/100000072052"/>
              <code value="100000072083"/>
              <display value="Marketed"/>
            </coding>
          </status>
        </marketingStatus>
        <packaging>
          <type>
            <coding>
              <system value="https://spor.ema.europa.eu/v1/lists/100000073346"/>
              <code value="100000073498"/>
              <display value="Box"/>
            </coding>
          </type>
          <quantity value="1"/>
          <material>
            <coding>
              <system value="https://spor.ema.europa.eu/v1/lists/200000003199"/>
              <code value="200000003529"/>
              <display value="Cardboard"/>
            </coding>
          </material>
          <packaging>
            <type>
              <coding>
                <system value="https://spor.ema.europa.eu/v1/lists/100000073346"/>
                <code value="100000073559"/>
                <display value="Strip"/>
              </coding>
            </type>
            <quantity value="1"/>
            <material>
              <coding>
                <system value="https://spor.ema.europa.eu/v1/lists/200000003199"/>
                <code value="200000003200"/>
                <display value="Aluminium"/>
              </coding>
            </material>
            <material>
              <coding>
                <system value="https://spor.ema.europa.eu/v1/lists/200000003199"/>
                <code value="200000003214"/>
                <display value="PolyEthylene"/>
              </coding>
            </material>
            <containedItem>
              <item>
                <reference>
                  <reference value="ManufacturedItemDefinition/CanifugCremolum-100mg-Pessary-EE-MID"/>
                </reference>
              </item>
              <amount>
                <value value="6"/>
              </amount>
            </containedItem>
          </packaging>
          <packaging>
            <type>
              <coding>
                <system value="https://spor.ema.europa.eu/v1/lists/100000073346"/>
                <code value="100000073561"/>
                <display value="Tube"/>
              </coding>
            </type>
            <quantity value="1"/>
            <material>
              <coding>
                <system value="https://spor.ema.europa.eu/v1/lists/200000003199"/>
                <code value="200000003200"/>
                <display value="Aluminium"/>
              </coding>
            </material>
            <containedItem>
              <item>
                <reference>
                  <reference value="ManufacturedItemDefinition/CanifugCremolum-10mg1g-Cream-EE-MID"/>
                </reference>
              </item>
              <amount>
                <value value="20"/>
                <unit value="gram(s)"/>
                <system value="https://spor.ema.europa.eu/v1/lists/100000110633"/>
                <code value="100000110654"/>
              </amount>
            </containedItem>
          </packaging>
        </packaging>
      </PackagedProductDefinition>
    </resource>
  </entry>
</Bundle>