<?xml version="1.0" encoding="UTF-8"?>

<Bundle xmlns="http://hl7.org/fhir">
  <id value="007-Jangee-002mg-3mg-Film-coated-tablet-EE-FullProduct"/>
  <type value="collection"/>
  <entry>
    <fullUrl value="https://hl7-eu.github.io/unicom-ig/branches/mpd-r4b/MedicinalProductDefinition-Jangee-002mg-3mg-Film-coated-tablet-EE-MPD"/>
    <resource>
      <MedicinalProductDefinition>
        <id value="Jangee-002mg-3mg-Film-coated-tablet-EE-MPD"/>
        <meta>
          <profile value="http://unicom-project.eu/fhir/StructureDefinition/PPLMedicinalProductDefinition"/>
        </meta>
        <text>
          <status value="generated"/><div xmlns="http://www.w3.org/1999/xhtml"><a name="MedicinalProductDefinition_Jangee-002mg-3mg-Film-coated-tablet-EE-MPD"> </a><p class="res-header-id"><b>Generated Narrative: MedicinalProductDefinition Jangee-002mg-3mg-Film-coated-tablet-EE-MPD</b></p><a name="Jangee-002mg-3mg-Film-coated-tablet-EE-MPD"> </a><a name="hcJangee-002mg-3mg-Film-coated-tablet-EE-MPD"> </a><a name="hcJangee-002mg-3mg-Film-coated-tablet-EE-MPD-en-US"> </a><p><b>identifier</b>: <code>http://ema.europa.eu/fhir/mpId</code>/EE-100005719-2603</p><p><b>domain</b>: <span title="Codes:{https://spor.ema.europa.eu/v1/lists/100000000004 100000000012}">Human use</span></p><p><b>status</b>: <span title="Codes:{https://spor.ema.europa.eu/v1/lists/200000005003 200000005004}">Current</span></p><p><b>combinedPharmaceuticalDoseForm</b>: <span title="Codes:{https://spor.ema.europa.eu/v1/lists/200000000004 100000073665}">Film-coated tablet</span></p><p><b>legalStatusOfSupply</b>: <span title="Codes:{https://spor.ema.europa.eu/v1/lists/100000072051 100000072084}">Medicinal product subject to medical prescription</span></p><p><b>classification</b>: <span title="Codes:{https://spor.ema.europa.eu/v1/lists/100000093533 100000095785}">drospirenone and ethinylestradiol</span></p><blockquote><p><b>name</b></p><p><b>productName</b>: Jangee 0.02 mg/3 mg, õhukese polümeerikattega tabletid</p><blockquote><p><b>part</b></p><p><b>part</b>: Jangee</p><p><b>type</b>: <span title="Codes:{https://spor.ema.europa.eu/v1/lists/220000000000 220000000002}">Invented name part</span></p></blockquote><blockquote><p><b>part</b></p><p><b>part</b>: 0.02 mg/3 mg</p><p><b>type</b>: <span title="Codes:{https://spor.ema.europa.eu/v1/lists/220000000000 220000000004}">Strength part</span></p></blockquote><blockquote><p><b>part</b></p><p><b>part</b>: Õhukese polümeerikattega tabletid</p><p><b>type</b>: <span title="Codes:{https://spor.ema.europa.eu/v1/lists/220000000000 220000000005}">Pharmaceutical dose form part</span></p></blockquote><h3>Usages</h3><table class="grid"><tr><td style="display: none">-</td><td><b>Country</b></td><td><b>Language</b></td></tr><tr><td style="display: none">*</td><td><span title="Codes:{https://spor.ema.europa.eu/v1/lists/100000000002 100000000388}">Republic of Estonia</span></td><td><span title="Codes:{urn:ietf:bcp:47 et}">Estonian</span></td></tr></table></blockquote></div>
        </text>
        <identifier>
          <system value="http://ema.europa.eu/fhir/mpId"/>
          <value value="EE-100005719-2603"/>
        </identifier>
        <domain>
          <coding>
            <system value="https://spor.ema.europa.eu/v1/lists/100000000004"/>
            <code value="100000000012"/>
            <display value="Human use"/>
          </coding>
        </domain>
        <status>
          <coding>
            <system value="https://spor.ema.europa.eu/v1/lists/200000005003"/>
            <code value="200000005004"/>
            <display value="Current"/>
          </coding>
        </status>
        <combinedPharmaceuticalDoseForm>
          <coding>
            <system value="https://spor.ema.europa.eu/v1/lists/200000000004"/>
            <code value="100000073665"/>
            <display value="Film-coated tablet"/>
          </coding>
        </combinedPharmaceuticalDoseForm>
        <legalStatusOfSupply>
          <coding>
            <system value="https://spor.ema.europa.eu/v1/lists/100000072051"/>
            <code value="100000072084"/>
            <display value="Medicinal product subject to medical prescription"/>
          </coding>
        </legalStatusOfSupply>
        <classification>
          <coding>
            <system value="https://spor.ema.europa.eu/v1/lists/100000093533"/>
            <code value="100000095785"/>
            <display value="drospirenone and ethinylestradiol"/>
          </coding>
        </classification>
        <name>
          <productName value="Jangee 0.02 mg/3 mg, õhukese polümeerikattega tabletid"/>
          <part>
            <part value="Jangee"/>
            <type>
              <coding>
                <system value="https://spor.ema.europa.eu/v1/lists/220000000000"/>
                <code value="220000000002"/>
                <display value="Invented name part"/>
              </coding>
            </type>
          </part>
          <part>
            <part value="0.02 mg/3 mg"/>
            <type>
              <coding>
                <system value="https://spor.ema.europa.eu/v1/lists/220000000000"/>
                <code value="220000000004"/>
                <display value="Strength part"/>
              </coding>
            </type>
          </part>
          <part>
            <part value="Õhukese polümeerikattega tabletid"/>
            <type>
              <coding>
                <system value="https://spor.ema.europa.eu/v1/lists/220000000000"/>
                <code value="220000000005"/>
                <display value="Pharmaceutical dose form part"/>
              </coding>
            </type>
          </part>
          <usage>
            <country>
              <coding>
                <system value="https://spor.ema.europa.eu/v1/lists/100000000002"/>
                <code value="100000000388"/>
                <display value="Republic of Estonia"/>
              </coding>
            </country>
            <language>
              <coding>
                <system value="urn:ietf:bcp:47"/>
                <code value="et"/>
                <display value="Estonian"/>
              </coding>
            </language>
          </usage>
        </name>
      </MedicinalProductDefinition>
    </resource>
  </entry>
  <entry>
    <fullUrl value="https://hl7-eu.github.io/unicom-ig/branches/mpd-r4b/Organization-LOC-100005719-ExeltisBalticsUAB"/>
    <resource>
      <Organization>
        <id value="LOC-100005719-ExeltisBalticsUAB"/>
        <meta>
          <profile value="http://unicom-project.eu/fhir/StructureDefinition/PPLOrganization"/>
        </meta>
        <text>
          <status value="generated"/><div xmlns="http://www.w3.org/1999/xhtml"><a name="Organization_LOC-100005719-ExeltisBalticsUAB"> </a><p class="res-header-id"><b>Generated Narrative: Organization LOC-100005719-ExeltisBalticsUAB</b></p><a name="LOC-100005719-ExeltisBalticsUAB"> </a><a name="hcLOC-100005719-ExeltisBalticsUAB"> </a><a name="hcLOC-100005719-ExeltisBalticsUAB-en-US"> </a><p><b>identifier</b>: <code>https://spor.ema.europa.eu/v1/locations</code>/LOC-100005719</p><p><b>name</b>: Exeltis Baltics UAB</p></div>
        </text>
        <identifier>
          <system value="https://spor.ema.europa.eu/v1/locations"/>
          <value value="LOC-100005719"/>
        </identifier>
        <name value="Exeltis Baltics UAB"/>
      </Organization>
    </resource>
  </entry>
  <entry>
    <fullUrl value="https://hl7-eu.github.io/unicom-ig/branches/mpd-r4b/RegulatedAuthorization-Jangee-002mg-3mg-Film-coated-tablet-EE-RA"/>
    <resource>
      <RegulatedAuthorization>
        <id value="Jangee-002mg-3mg-Film-coated-tablet-EE-RA"/>
        <meta>
          <profile value="http://unicom-project.eu/fhir/StructureDefinition/PPLRegulatedAuthorization"/>
        </meta>
        <text>
          <status value="generated"/><div xmlns="http://www.w3.org/1999/xhtml"><a name="RegulatedAuthorization_Jangee-002mg-3mg-Film-coated-tablet-EE-RA"> </a><p class="res-header-id"><b>Generated Narrative: RegulatedAuthorization Jangee-002mg-3mg-Film-coated-tablet-EE-RA</b></p><a name="Jangee-002mg-3mg-Film-coated-tablet-EE-RA"> </a><a name="hcJangee-002mg-3mg-Film-coated-tablet-EE-RA"> </a><a name="hcJangee-002mg-3mg-Film-coated-tablet-EE-RA-en-US"> </a><p><b>identifier</b>: 650509</p><p><b>subject</b>: <a href="Bundle-007-Jangee-002mg-3mg-Film-coated-tablet-EE-FullProduct.html#MedicinalProductDefinition_Jangee-002mg-3mg-Film-coated-tablet-EE-MPD">Bundle: type = collection</a></p><p><b>type</b>: <span title="Codes:{https://spor.ema.europa.eu/v1/lists/220000000060 220000000061}">Marketing Authorisation</span></p><p><b>region</b>: <span title="Codes:{https://spor.ema.europa.eu/v1/lists/100000000002 100000000388}">Republic of Estonia</span></p><p><b>status</b>: <span title="Codes:{https://spor.ema.europa.eu/v1/lists/100000072049 200000017708}">Valid - Renewed/Varied</span></p><p><b>statusDate</b>: 2016-09-14</p><p><b>holder</b>: <a href="Bundle-007-Jangee-002mg-3mg-Film-coated-tablet-EE-FullProduct.html#Organization_LOC-100005719-ExeltisBalticsUAB">Bundle: type = collection</a></p></div>
        </text>
        <identifier>
          <value value="650509"/>
        </identifier>
        <subject>
          <reference value="MedicinalProductDefinition/Jangee-002mg-3mg-Film-coated-tablet-EE-MPD"/>
        </subject>
        <type>
          <coding>
            <system value="https://spor.ema.europa.eu/v1/lists/220000000060"/>
            <code value="220000000061"/>
            <display value="Marketing Authorisation"/>
          </coding>
        </type>
        <region>
          <coding>
            <system value="https://spor.ema.europa.eu/v1/lists/100000000002"/>
            <code value="100000000388"/>
            <display value="Republic of Estonia"/>
          </coding>
        </region>
        <status>
          <coding>
            <system value="https://spor.ema.europa.eu/v1/lists/100000072049"/>
            <code value="200000017708"/>
            <display value="Valid - Renewed/Varied"/>
          </coding>
        </status>
        <statusDate value="2016-09-14"/>
        <holder>
          <reference value="Organization/LOC-100005719-ExeltisBalticsUAB"/>
        </holder>
      </RegulatedAuthorization>
    </resource>
  </entry>
  <entry>
    <fullUrl value="https://hl7-eu.github.io/unicom-ig/branches/mpd-r4b/AdministrableProductDefinition-Jangee-002mg-3mg-Film-coated-tablet-EE-APD"/>
    <resource>
      <AdministrableProductDefinition>
        <id value="Jangee-002mg-3mg-Film-coated-tablet-EE-APD"/>
        <meta>
          <profile value="http://unicom-project.eu/fhir/StructureDefinition/PPLAdministrableProductDefinition"/>
        </meta>
        <text>
          <status value="generated"/><div xmlns="http://www.w3.org/1999/xhtml"><a name="AdministrableProductDefinition_Jangee-002mg-3mg-Film-coated-tablet-EE-APD"> </a><p class="res-header-id"><b>Generated Narrative: AdministrableProductDefinition Jangee-002mg-3mg-Film-coated-tablet-EE-APD</b></p><a name="Jangee-002mg-3mg-Film-coated-tablet-EE-APD"> </a><a name="hcJangee-002mg-3mg-Film-coated-tablet-EE-APD"> </a><a name="hcJangee-002mg-3mg-Film-coated-tablet-EE-APD-en-US"> </a><p><b>status</b>: Active</p><p><b>formOf</b>: <a href="Bundle-007-Jangee-002mg-3mg-Film-coated-tablet-EE-FullProduct.html#MedicinalProductDefinition_Jangee-002mg-3mg-Film-coated-tablet-EE-MPD">Bundle: type = collection</a></p><p><b>administrableDoseForm</b>: <span title="Codes:{https://spor.ema.europa.eu/v1/lists/200000000004 100000073665}">Film-coated tablet</span></p><p><b>producedFrom</b>: <a href="Bundle-007-Jangee-002mg-3mg-Film-coated-tablet-EE-FullProduct.html#ManufacturedItemDefinition_Jangee-002mg-3mg-Film-coated-tablet-EE-MID">Bundle: type = collection</a></p><h3>RouteOfAdministrations</h3><table class="grid"><tr><td style="display: none">-</td><td><b>Code</b></td></tr><tr><td style="display: none">*</td><td><span title="Codes:{https://spor.ema.europa.eu/v1/lists/100000073345 100000073619}">Oral use</span></td></tr></table></div>
        </text>
        <status value="active"/>
        <formOf>
          <reference value="MedicinalProductDefinition/Jangee-002mg-3mg-Film-coated-tablet-EE-MPD"/>
        </formOf>
        <administrableDoseForm>
          <coding>
            <system value="https://spor.ema.europa.eu/v1/lists/200000000004"/>
            <code value="100000073665"/>
            <display value="Film-coated tablet"/>
          </coding>
        </administrableDoseForm>
        <producedFrom>
          <reference value="ManufacturedItemDefinition/Jangee-002mg-3mg-Film-coated-tablet-EE-MID"/>
        </producedFrom>
        <routeOfAdministration>
          <code>
            <coding>
              <system value="https://spor.ema.europa.eu/v1/lists/100000073345"/>
              <code value="100000073619"/>
              <display value="Oral use"/>
            </coding>
          </code>
        </routeOfAdministration>
      </AdministrableProductDefinition>
    </resource>
  </entry>
  <entry>
    <fullUrl value="https://hl7-eu.github.io/unicom-ig/branches/mpd-r4b/PackagedProductDefinition-Jangee-002mg-3mg-Film-coated-tablet-EE-PPD"/>
    <resource>
      <PackagedProductDefinition>
        <id value="Jangee-002mg-3mg-Film-coated-tablet-EE-PPD"/>
        <meta>
          <profile value="http://unicom-project.eu/fhir/StructureDefinition/PPLPackagedProductDefinition"/>
        </meta>
        <text>
          <status value="generated"/><div xmlns="http://www.w3.org/1999/xhtml"><a name="PackagedProductDefinition_Jangee-002mg-3mg-Film-coated-tablet-EE-PPD"> </a><p class="res-header-id"><b>Generated Narrative: PackagedProductDefinition Jangee-002mg-3mg-Film-coated-tablet-EE-PPD</b></p><a name="Jangee-002mg-3mg-Film-coated-tablet-EE-PPD"> </a><a name="hcJangee-002mg-3mg-Film-coated-tablet-EE-PPD"> </a><a name="hcJangee-002mg-3mg-Film-coated-tablet-EE-PPD-en-US"> </a><p><b>identifier</b>: <code>http://ema.europa.eu/example/pcid</code>/EE-100005719-2603-1331019</p><p><b>packageFor</b>: <a href="Bundle-007-Jangee-002mg-3mg-Film-coated-tablet-EE-FullProduct.html#MedicinalProductDefinition_Jangee-002mg-3mg-Film-coated-tablet-EE-MPD">Bundle: type = collection</a></p><p><b>containedItemQuantity</b>: 21 tablet<span style="background: LightGoldenRodYellow"> (Details: Unit of Presentation EMA  code200000002152 = 'Tablet')</span></p><p><b>description</b>: </p><div><p>Alumiiniumfooliumiga kaetud PVC/PVDC blistrid. Pakendi suurus: 1 x 21 õhukese polümeerikattega tabletti</p>
</div><h3>MarketingStatuses</h3><table class="grid"><tr><td style="display: none">-</td><td><b>Country</b></td><td><b>Status</b></td></tr><tr><td style="display: none">*</td><td><span title="Codes:{https://spor.ema.europa.eu/v1/lists/100000000002 100000000388}">Republic of Estonia</span></td><td><span title="Codes:{https://spor.ema.europa.eu/v1/lists/100000072052 100000072083}">Marketed</span></td></tr></table><blockquote><p><b>packaging</b></p><p><b>type</b>: <span title="Codes:{https://spor.ema.europa.eu/v1/lists/100000073346 100000073498}">Box</span></p><p><b>quantity</b>: 1</p><blockquote><p><b>packaging</b></p></blockquote></blockquote></div>
        </text>
        <identifier>
          <system value="http://ema.europa.eu/example/pcid"/>
          <value value="EE-100005719-2603-1331019"/>
        </identifier>
        <packageFor>
          <reference value="MedicinalProductDefinition/Jangee-002mg-3mg-Film-coated-tablet-EE-MPD"/>
        </packageFor>
        <containedItemQuantity>
          <value value="21"/>
          <unit value="tablet"/>
          <system value="https://spor.ema.europa.eu/v1/lists/200000000014"/>
          <code value="200000002152"/>
        </containedItemQuantity>
        <description value="Alumiiniumfooliumiga kaetud PVC/PVDC blistrid. Pakendi suurus: 1 x 21 õhukese polümeerikattega tabletti"/>
        <marketingStatus>
          <country>
            <coding>
              <system value="https://spor.ema.europa.eu/v1/lists/100000000002"/>
              <code value="100000000388"/>
              <display value="Republic of Estonia"/>
            </coding>
          </country>
          <status>
            <coding>
              <system value="https://spor.ema.europa.eu/v1/lists/100000072052"/>
              <code value="100000072083"/>
              <display value="Marketed"/>
            </coding>
          </status>
        </marketingStatus>
        <packaging>
          <type>
            <coding>
              <system value="https://spor.ema.europa.eu/v1/lists/100000073346"/>
              <code value="100000073498"/>
              <display value="Box"/>
            </coding>
          </type>
          <quantity value="1"/>
          <packaging>
            <type>
              <coding>
                <system value="https://spor.ema.europa.eu/v1/lists/100000073346"/>
                <code value="100000073498"/>
                <display value="Box"/>
              </coding>
            </type>
            <quantity value="1"/>
            <material>
              <coding>
                <system value="https://spor.ema.europa.eu/v1/lists/200000003199"/>
                <code value="200000003529"/>
                <display value="Cardboard"/>
              </coding>
            </material>
            <packaging>
              <type>
                <coding>
                  <system value="https://spor.ema.europa.eu/v1/lists/100000073346"/>
                  <code value="100000073496"/>
                  <display value="Blister"/>
                </coding>
              </type>
              <quantity value="1"/>
              <material>
                <coding>
                  <system value="https://spor.ema.europa.eu/v1/lists/200000003199"/>
                  <code value="200000003200"/>
                  <display value="Aluminium"/>
                </coding>
              </material>
              <material>
                <coding>
                  <system value="https://spor.ema.europa.eu/v1/lists/200000003199"/>
                  <code value="200000003222"/>
                  <display value="PolyVinyl Chloride"/>
                </coding>
              </material>
              <material>
                <coding>
                  <system value="https://spor.ema.europa.eu/v1/lists/200000003199"/>
                  <code value="200000003225"/>
                  <display value="PolyVinylidene Chloride"/>
                </coding>
              </material>
              <containedItem>
                <item>
                  <reference>
                    <reference value="ManufacturedItemDefinition/Jangee-002mg-3mg-Film-coated-tablet-EE-MID"/>
                  </reference>
                </item>
                <amount>
                  <value value="21"/>
                  <unit value="tablet"/>
                  <system value="https://spor.ema.europa.eu/v1/lists/200000000014"/>
                  <code value="200000002152"/>
                </amount>
              </containedItem>
            </packaging>
          </packaging>
        </packaging>
      </PackagedProductDefinition>
    </resource>
  </entry>
  <entry>
    <fullUrl value="https://hl7-eu.github.io/unicom-ig/branches/mpd-r4b/ManufacturedItemDefinition-Jangee-002mg-3mg-Film-coated-tablet-EE-MID"/>
    <resource>
      <ManufacturedItemDefinition>
        <id value="Jangee-002mg-3mg-Film-coated-tablet-EE-MID"/>
        <meta>
          <profile value="http://unicom-project.eu/fhir/StructureDefinition/PPLManufacturedItemDefinition"/>
        </meta>
        <text>
          <status value="generated"/><div xmlns="http://www.w3.org/1999/xhtml"><a name="ManufacturedItemDefinition_Jangee-002mg-3mg-Film-coated-tablet-EE-MID"> </a><p class="res-header-id"><b>Generated Narrative: ManufacturedItemDefinition Jangee-002mg-3mg-Film-coated-tablet-EE-MID</b></p><a name="Jangee-002mg-3mg-Film-coated-tablet-EE-MID"> </a><a name="hcJangee-002mg-3mg-Film-coated-tablet-EE-MID"> </a><a name="hcJangee-002mg-3mg-Film-coated-tablet-EE-MID-en-US"> </a><p><b>status</b>: Active</p><p><b>manufacturedDoseForm</b>: <span title="Codes:{https://spor.ema.europa.eu/v1/lists/200000000004 100000073665}">Film-coated tablet</span></p><p><b>unitOfPresentation</b>: <span title="Codes:{https://spor.ema.europa.eu/v1/lists/200000000014 200000002152}">tablet</span></p></div>
        </text>
        <status value="active"/>
        <manufacturedDoseForm>
          <coding>
            <system value="https://spor.ema.europa.eu/v1/lists/200000000004"/>
            <code value="100000073665"/>
            <display value="Film-coated tablet"/>
          </coding>
        </manufacturedDoseForm>
        <unitOfPresentation>
          <coding>
            <system value="https://spor.ema.europa.eu/v1/lists/200000000014"/>
            <code value="200000002152"/>
            <display value="tablet"/>
          </coding>
        </unitOfPresentation>
      </ManufacturedItemDefinition>
    </resource>
  </entry>
  <entry>
    <fullUrl value="https://hl7-eu.github.io/unicom-ig/branches/mpd-r4b-Jangee-002mg-3mg-Film-coated-tablet-EE-I-01"/>
    <resource>
      <Ingredient>
        <id value="Jangee-002mg-3mg-Film-coated-tablet-EE-I-01"/>
        <meta>
          <profile value="http://unicom-project.eu/fhir/StructureDefinition/PPLIngredient"/>
        </meta>
        <text>
          <status value="generated"/><div xmlns="http://www.w3.org/1999/xhtml"><a name="Ingredient_Jangee-002mg-3mg-Film-coated-tablet-EE-I-01"> </a><p class="res-header-id"><b>Generated Narrative: Ingredient Jangee-002mg-3mg-Film-coated-tablet-EE-I-01</b></p><a name="Jangee-002mg-3mg-Film-coated-tablet-EE-I-01"> </a><a name="hcJangee-002mg-3mg-Film-coated-tablet-EE-I-01"> </a><a name="hcJangee-002mg-3mg-Film-coated-tablet-EE-I-01-en-US"> </a><p><b>status</b>: Active</p><p><b>for</b>: </p><ul><li><a href="Bundle-007-Jangee-002mg-3mg-Film-coated-tablet-EE-FullProduct.html#MedicinalProductDefinition_Jangee-002mg-3mg-Film-coated-tablet-EE-MPD">Bundle: type = collection</a></li><li><a href="Bundle-007-Jangee-002mg-3mg-Film-coated-tablet-EE-FullProduct.html#ManufacturedItemDefinition_Jangee-002mg-3mg-Film-coated-tablet-EE-MID">Bundle: type = collection</a></li><li><a href="Bundle-007-Jangee-002mg-3mg-Film-coated-tablet-EE-FullProduct.html#AdministrableProductDefinition_Jangee-002mg-3mg-Film-coated-tablet-EE-APD">Bundle: type = collection</a></li></ul><p><b>role</b>: <span title="Codes:{https://spor.ema.europa.eu/v1/lists/100000072050 100000072072}">Active</span></p><blockquote><p><b>substance</b></p><h3>Codes</h3><table class="grid"><tr><td style="display: none">-</td><td><b>Concept</b></td></tr><tr><td style="display: none">*</td><td><span title="Codes:{https://spor.ema.europa.eu/v2/SubstanceDefinition 100000091531}">Ethinylestradiol betadex clathrate</span></td></tr></table><blockquote><p><b>strength</b></p><blockquote><p><b>referenceStrength</b></p><h3>Substances</h3><table class="grid"><tr><td style="display: none">-</td><td><b>Concept</b></td></tr><tr><td style="display: none">*</td><td><span title="Codes:{https://spor.ema.europa.eu/v2/SubstanceDefinition 100000091721}">Ethinylestradiol</span></td></tr></table><p><b>strength</b>: 0.02 milligram(s)<span style="background: LightGoldenRodYellow"> (Details: Unit of Measurement EMA  code100000110655 = 'milligram(s)')</span>/1 tablet<span style="background: LightGoldenRodYellow"> (Details: Unit of Presentation EMA  code200000002152 = 'Tablet')</span></p></blockquote></blockquote></blockquote></div>
        </text>
        <status value="active"/>
        <for>
          <reference value="MedicinalProductDefinition/Jangee-002mg-3mg-Film-coated-tablet-EE-MPD"/>
        </for>
        <for>
          <reference value="ManufacturedItemDefinition/Jangee-002mg-3mg-Film-coated-tablet-EE-MID"/>
        </for>
        <for>
          <reference value="AdministrableProductDefinition/Jangee-002mg-3mg-Film-coated-tablet-EE-APD"/>
        </for>
        <role>
          <coding>
            <system value="https://spor.ema.europa.eu/v1/lists/100000072050"/>
            <code value="100000072072"/>
            <display value="Active"/>
          </coding>
        </role>
        <substance>
          <code>
            <concept>
              <coding>
                <system value="https://spor.ema.europa.eu/v2/SubstanceDefinition"/>
                <code value="100000091531"/>
                <display value="Ethinylestradiol betadex clathrate"/>
              </coding>
            </concept>
          </code>
          <strength>
            <referenceStrength>
              <substance>
                <concept>
                  <coding>
                    <system value="https://spor.ema.europa.eu/v2/SubstanceDefinition"/>
                    <code value="100000091721"/>
                    <display value="Ethinylestradiol"/>
                  </coding>
                </concept>
              </substance>
              <strengthRatio>
                <numerator>
                  <value value="0.02"/>
                  <unit value="milligram(s)"/>
                  <system value="https://spor.ema.europa.eu/v1/lists/100000110633"/>
                  <code value="100000110655"/>
                </numerator>
                <denominator>
                  <value value="1"/>
                  <unit value="tablet"/>
                  <system value="https://spor.ema.europa.eu/v1/lists/200000000014"/>
                  <code value="200000002152"/>
                </denominator>
              </strengthRatio>
            </referenceStrength>
          </strength>
        </substance>
      </Ingredient>
    </resource>
  </entry>
  <entry>
    <fullUrl value="https://hl7-eu.github.io/unicom-ig/branches/mpd-r4b-Jangee-002mg-3mg-Film-coated-tablet-EE-I-02"/>
    <resource>
      <Ingredient>
        <id value="Jangee-002mg-3mg-Film-coated-tablet-EE-I-02"/>
        <meta>
          <profile value="http://unicom-project.eu/fhir/StructureDefinition/PPLIngredient"/>
        </meta>
        <text>
          <status value="generated"/><div xmlns="http://www.w3.org/1999/xhtml"><a name="Ingredient_Jangee-002mg-3mg-Film-coated-tablet-EE-I-02"> </a><p class="res-header-id"><b>Generated Narrative: Ingredient Jangee-002mg-3mg-Film-coated-tablet-EE-I-02</b></p><a name="Jangee-002mg-3mg-Film-coated-tablet-EE-I-02"> </a><a name="hcJangee-002mg-3mg-Film-coated-tablet-EE-I-02"> </a><a name="hcJangee-002mg-3mg-Film-coated-tablet-EE-I-02-en-US"> </a><p><b>status</b>: Active</p><p><b>for</b>: </p><ul><li><a href="Bundle-007-Jangee-002mg-3mg-Film-coated-tablet-EE-FullProduct.html#MedicinalProductDefinition_Jangee-002mg-3mg-Film-coated-tablet-EE-MPD">Bundle: type = collection</a></li><li><a href="Bundle-007-Jangee-002mg-3mg-Film-coated-tablet-EE-FullProduct.html#ManufacturedItemDefinition_Jangee-002mg-3mg-Film-coated-tablet-EE-MID">Bundle: type = collection</a></li><li><a href="Bundle-007-Jangee-002mg-3mg-Film-coated-tablet-EE-FullProduct.html#AdministrableProductDefinition_Jangee-002mg-3mg-Film-coated-tablet-EE-APD">Bundle: type = collection</a></li></ul><p><b>role</b>: <span title="Codes:{https://spor.ema.europa.eu/v1/lists/100000072050 100000072072}">Active</span></p><blockquote><p><b>substance</b></p><h3>Codes</h3><table class="grid"><tr><td style="display: none">-</td><td><b>Concept</b></td></tr><tr><td style="display: none">*</td><td><span title="Codes:{https://spor.ema.europa.eu/v2/SubstanceDefinition 100000092375}">drospirenone</span></td></tr></table><blockquote><p><b>strength</b></p><p><b>presentation</b>: 3 milligram(s)<span style="background: LightGoldenRodYellow"> (Details: Unit of Measurement EMA  code100000110655 = 'milligram(s)')</span>/1 tablet<span style="background: LightGoldenRodYellow"> (Details: Unit of Presentation EMA  code200000002152 = 'Tablet')</span></p><blockquote><p><b>referenceStrength</b></p><h3>Substances</h3><table class="grid"><tr><td style="display: none">-</td><td><b>Concept</b></td></tr><tr><td style="display: none">*</td><td><span title="Codes:{https://spor.ema.europa.eu/v2/SubstanceDefinition 100000092375}">drospirenone</span></td></tr></table><p><b>strength</b>: 3 milligram(s)<span style="background: LightGoldenRodYellow"> (Details: Unit of Measurement EMA  code100000110655 = 'milligram(s)')</span>/1 tablet<span style="background: LightGoldenRodYellow"> (Details: Unit of Presentation EMA  code200000002152 = 'Tablet')</span></p></blockquote></blockquote></blockquote></div>
        </text>
        <status value="active"/>
        <for>
          <reference value="MedicinalProductDefinition/Jangee-002mg-3mg-Film-coated-tablet-EE-MPD"/>
        </for>
        <for>
          <reference value="ManufacturedItemDefinition/Jangee-002mg-3mg-Film-coated-tablet-EE-MID"/>
        </for>
        <for>
          <reference value="AdministrableProductDefinition/Jangee-002mg-3mg-Film-coated-tablet-EE-APD"/>
        </for>
        <role>
          <coding>
            <system value="https://spor.ema.europa.eu/v1/lists/100000072050"/>
            <code value="100000072072"/>
            <display value="Active"/>
          </coding>
        </role>
        <substance>
          <code>
            <concept>
              <coding>
                <system value="https://spor.ema.europa.eu/v2/SubstanceDefinition"/>
                <code value="100000092375"/>
                <display value="drospirenone"/>
              </coding>
            </concept>
          </code>
          <strength>
            <presentationRatio>
              <numerator>
                <value value="3"/>
                <unit value="milligram(s)"/>
                <system value="https://spor.ema.europa.eu/v1/lists/100000110633"/>
                <code value="100000110655"/>
              </numerator>
              <denominator>
                <value value="1"/>
                <unit value="tablet"/>
                <system value="https://spor.ema.europa.eu/v1/lists/200000000014"/>
                <code value="200000002152"/>
              </denominator>
            </presentationRatio>
            <referenceStrength>
              <substance>
                <concept>
                  <coding>
                    <system value="https://spor.ema.europa.eu/v2/SubstanceDefinition"/>
                    <code value="100000092375"/>
                    <display value="drospirenone"/>
                  </coding>
                </concept>
              </substance>
              <strengthRatio>
                <numerator>
                  <value value="3"/>
                  <unit value="milligram(s)"/>
                  <system value="https://spor.ema.europa.eu/v1/lists/100000110633"/>
                  <code value="100000110655"/>
                </numerator>
                <denominator>
                  <value value="1"/>
                  <unit value="tablet"/>
                  <system value="https://spor.ema.europa.eu/v1/lists/200000000014"/>
                  <code value="200000002152"/>
                </denominator>
              </strengthRatio>
            </referenceStrength>
          </strength>
        </substance>
      </Ingredient>
    </resource>
  </entry>
</Bundle>