{
  "resourceType" : "Bundle",
  "id" : "012-Panodil-500mg-SolutionInSachet-SE-FullProduct",
  "type" : "collection",
  "entry" : [{
    "fullUrl" : "https://hl7-eu.github.io/unicom-ig/branches/mpd-r4b/MedicinalProductDefinition-Panodil500mgoralsolutionsachet-SE-PLC-MPD",
    "resource" : {
      "resourceType" : "MedicinalProductDefinition",
      "id" : "Panodil500mgoralsolutionsachet-SE-PLC-MPD",
      "meta" : {
        "profile" : ["http://unicom-project.eu/fhir/StructureDefinition/PPLMedicinalProductDefinition"]
      },
      "text" : {
        "status" : "generated",
        "div" : "<div xmlns=\"http://www.w3.org/1999/xhtml\"><a name=\"MedicinalProductDefinition_Panodil500mgoralsolutionsachet-SE-PLC-MPD\"> </a><p><b>Generated Narrative: MedicinalProductDefinition</b><a name=\"Panodil500mgoralsolutionsachet-SE-PLC-MPD\"> </a><a name=\"hcPanodil500mgoralsolutionsachet-SE-PLC-MPD\"> </a></p><div style=\"display: inline-block; background-color: #d9e0e7; padding: 6px; margin: 4px; border: 1px solid #8da1b4; border-radius: 5px; line-height: 60%\"><p style=\"margin-bottom: 0px\">Resource MedicinalProductDefinition &quot;Panodil500mgoralsolutionsachet-SE-PLC-MPD&quot; </p><p style=\"margin-bottom: 0px\">Profile: <a href=\"StructureDefinition-PPLMedicinalProductDefinition.html\">PPL Medicinal Product profile</a></p></div><p><b>identifier</b>: <code>http://ema.europa.eu/fhir/eurdId</code>/2283</p><p><b>domain</b>: Human use <span style=\"background: LightGoldenRodYellow; margin: 4px; border: 1px solid khaki\"> (<a href=\"CodeSystem-domain-ema-cs.html\">Domain EMA</a>#100000000012)</span></p><p><b>status</b>: Current <span style=\"background: LightGoldenRodYellow; margin: 4px; border: 1px solid khaki\"> (<a href=\"CodeSystem-recordStatus-ema-cs.html\">Record Status EMA SPOR</a>#200000005004)</span></p><p><b>combinedPharmaceuticalDoseForm</b>: Powder for oral solution in sachet <span style=\"background: LightGoldenRodYellow; margin: 4px; border: 1px solid khaki\"> (<a href=\"CodeSystem-combined-term-ema-cs.html\">Combined Term EMA</a>#100000125752)</span></p><p><b>indication</b>: Panodil 500 mg pulver till oral lösning i dospåse används mot huvudvärk, tandvärk, feber vid förkylningssjukdomar, menstruationssmärtor, muskel- och ledvärk, som analgetikum vid reumatiska smärtor, hyperpyrexi. För vuxna och barn över 12 år.</p><p><b>legalStatusOfSupply</b>: Medicinal product not subject to medical prescription <span style=\"background: LightGoldenRodYellow; margin: 4px; border: 1px solid khaki\"> (<a href=\"CodeSystem-legal-status-for-the-supply-ema-cs.html\">Legal Status for the Supply EMA</a>#100000072076)</span></p><p><b>classification</b>: Paracetamol <span style=\"background: LightGoldenRodYellow; margin: 4px; border: 1px solid khaki\"> (<a href=\"CodeSystem-ATC-Human-EMA.html\">ATC Human EMA</a>#100000097305)</span>, Paracetamol <span style=\"background: LightGoldenRodYellow; margin: 4px; border: 1px solid khaki\"> (<a href=\"http://terminology.hl7.org/5.5.0/CodeSystem-v3-WC.html\">WHO ATC</a>#N02BE01)</span></p><blockquote><p><b>name</b></p><p><b>productName</b>: Panodil 500 mg pulver till oral lösning i dospåse</p><blockquote><p><b>part</b></p><p><b>part</b>: Panodil</p><p><b>type</b>: Invented name part <span style=\"background: LightGoldenRodYellow; margin: 4px; border: 1px solid khaki\"> (220000000000#220000000002)</span></p></blockquote><blockquote><p><b>part</b></p><p><b>part</b>: 500 mg</p><p><b>type</b>: Strength part <span style=\"background: LightGoldenRodYellow; margin: 4px; border: 1px solid khaki\"> (220000000000#220000000004)</span></p></blockquote><blockquote><p><b>part</b></p><p><b>part</b>: pulver till oral lösning i dospåse</p><p><b>type</b>: Pharmaceutical dose form part <span style=\"background: LightGoldenRodYellow; margin: 4px; border: 1px solid khaki\"> (220000000000#220000000005)</span></p></blockquote><h3>Usages</h3><table class=\"grid\"><tr><td style=\"display: none\">-</td><td><b>Country</b></td><td><b>Language</b></td></tr><tr><td style=\"display: none\">*</td><td>Kingdom of Sweden <span style=\"background: LightGoldenRodYellow; margin: 4px; border: 1px solid khaki\"> (<a href=\"CodeSystem-country-ema-cs.html\">Country EMA</a>#100000000535)</span></td><td>Swedish <span style=\"background: LightGoldenRodYellow; margin: 4px; border: 1px solid khaki\"> (<a href=\"http://terminology.hl7.org/5.5.0/CodeSystem-v3-ietf3066.html\">Tags for the Identification of Languages</a>#sv)</span></td></tr></table></blockquote></div>"
      },
      "identifier" : [{
        "system" : "http://ema.europa.eu/fhir/eurdId",
        "value" : "2283"
      }],
      "domain" : {
        "coding" : [{
          "system" : "https://spor.ema.europa.eu/v1/lists/100000000004",
          "code" : "100000000012",
          "display" : "Human use"
        }]
      },
      "status" : {
        "coding" : [{
          "system" : "https://spor.ema.europa.eu/v1/lists/200000005003",
          "code" : "200000005004",
          "display" : "Current"
        }]
      },
      "combinedPharmaceuticalDoseForm" : {
        "coding" : [{
          "system" : "https://spor.ema.europa.eu/v1/lists/200000000007",
          "code" : "100000125752",
          "display" : "Powder for oral solution in sachet"
        }]
      },
      "indication" : "Panodil 500 mg pulver till oral lösning i dospåse används mot huvudvärk, tandvärk, feber vid förkylningssjukdomar, menstruationssmärtor, muskel- och ledvärk, som analgetikum vid reumatiska smärtor, hyperpyrexi. För vuxna och barn över 12 år.",
      "legalStatusOfSupply" : {
        "coding" : [{
          "system" : "https://spor.ema.europa.eu/v1/lists/100000072051",
          "code" : "100000072076",
          "display" : "Medicinal product not subject to medical prescription"
        }]
      },
      "classification" : [{
        "coding" : [{
          "system" : "https://spor.ema.europa.eu/v1/lists/100000093533",
          "code" : "100000097305",
          "display" : "Paracetamol"
        }]
      },
      {
        "coding" : [{
          "system" : "http://www.whocc.no/atc",
          "code" : "N02BE01",
          "display" : "Paracetamol"
        }]
      }],
      "name" : [{
        "productName" : "Panodil 500 mg pulver till oral lösning i dospåse",
        "part" : [{
          "part" : "Panodil",
          "type" : {
            "coding" : [{
              "system" : "https://spor.ema.europa.eu/v1/lists/220000000000",
              "code" : "220000000002",
              "display" : "Invented name part"
            }]
          }
        },
        {
          "part" : "500 mg",
          "type" : {
            "coding" : [{
              "system" : "https://spor.ema.europa.eu/v1/lists/220000000000",
              "code" : "220000000004",
              "display" : "Strength part"
            }]
          }
        },
        {
          "part" : "pulver till oral lösning i dospåse",
          "type" : {
            "coding" : [{
              "system" : "https://spor.ema.europa.eu/v1/lists/220000000000",
              "code" : "220000000005",
              "display" : "Pharmaceutical dose form part"
            }]
          }
        }],
        "usage" : [{
          "country" : {
            "coding" : [{
              "system" : "https://spor.ema.europa.eu/v1/lists/100000000002",
              "code" : "100000000535",
              "display" : "Kingdom of Sweden"
            }]
          },
          "language" : {
            "coding" : [{
              "system" : "urn:ietf:bcp:47",
              "code" : "sv",
              "display" : "Swedish"
            }]
          }
        }]
      }]
    }
  },
  {
    "fullUrl" : "https://hl7-eu.github.io/unicom-ig/branches/mpd-r4b/RegulatedAuthorization-Panodil500mgoralsolutionsachet-SE-PLC-RegulatedAuthorization",
    "resource" : {
      "resourceType" : "RegulatedAuthorization",
      "id" : "Panodil500mgoralsolutionsachet-SE-PLC-RegulatedAuthorization",
      "meta" : {
        "profile" : ["http://unicom-project.eu/fhir/StructureDefinition/PPLRegulatedAuthorization"]
      },
      "text" : {
        "status" : "generated",
        "div" : "<div xmlns=\"http://www.w3.org/1999/xhtml\"><a name=\"RegulatedAuthorization_Panodil500mgoralsolutionsachet-SE-PLC-RegulatedAuthorization\"> </a><p><b>Generated Narrative: RegulatedAuthorization</b><a name=\"Panodil500mgoralsolutionsachet-SE-PLC-RegulatedAuthorization\"> </a><a name=\"hcPanodil500mgoralsolutionsachet-SE-PLC-RegulatedAuthorization\"> </a></p><div style=\"display: inline-block; background-color: #d9e0e7; padding: 6px; margin: 4px; border: 1px solid #8da1b4; border-radius: 5px; line-height: 60%\"><p style=\"margin-bottom: 0px\">Resource RegulatedAuthorization &quot;Panodil500mgoralsolutionsachet-SE-PLC-RegulatedAuthorization&quot; </p><p style=\"margin-bottom: 0px\">Profile: <a href=\"StructureDefinition-PPLRegulatedAuthorization.html\">PPL Marketing Authorisation profile</a></p></div><p><b>identifier</b>: 12391</p><p><b>subject</b>: See on this page: MedicinalProductDefinition/Panodil500mgoralsolutionsachet-SE-PLC-MPD</p><p><b>type</b>: Marketing Authorisation <span style=\"background: LightGoldenRodYellow; margin: 4px; border: 1px solid khaki\"> (220000000060#220000000061)</span></p><p><b>region</b>: Kingdom of Sweden <span style=\"background: LightGoldenRodYellow; margin: 4px; border: 1px solid khaki\"> (<a href=\"CodeSystem-country-ema-cs.html\">Country EMA</a>#100000000535)</span></p><p><b>status</b>: Valid <span style=\"background: LightGoldenRodYellow; margin: 4px; border: 1px solid khaki\"> (<a href=\"CodeSystem-regulatoryStatus-ema-cs.html\">Regulatory Entitlement Status EMA SPOR</a>#100000072099)</span></p><p><b>statusDate</b>: 1994-10-28</p><p><b>holder</b>: See on this page: Organization/LOC-100005555-PerrigoSverigeAB</p></div>"
      },
      "identifier" : [{
        "value" : "12391"
      }],
      "subject" : [{
        "reference" : "MedicinalProductDefinition/Panodil500mgoralsolutionsachet-SE-PLC-MPD"
      }],
      "type" : {
        "coding" : [{
          "system" : "https://spor.ema.europa.eu/v1/lists/220000000060",
          "code" : "220000000061",
          "display" : "Marketing Authorisation"
        }]
      },
      "region" : [{
        "coding" : [{
          "system" : "https://spor.ema.europa.eu/v1/lists/100000000002",
          "code" : "100000000535",
          "display" : "Kingdom of Sweden"
        }]
      }],
      "status" : {
        "coding" : [{
          "system" : "https://spor.ema.europa.eu/v1/lists/100000072049",
          "code" : "100000072099",
          "display" : "Valid"
        }]
      },
      "statusDate" : "1994-10-28",
      "holder" : {
        "reference" : "Organization/LOC-100005555-PerrigoSverigeAB"
      }
    }
  },
  {
    "fullUrl" : "https://hl7-eu.github.io/unicom-ig/branches/mpd-r4b/Organization-LOC-100005555-PerrigoSverigeAB",
    "resource" : {
      "resourceType" : "Organization",
      "id" : "LOC-100005555-PerrigoSverigeAB",
      "meta" : {
        "profile" : ["http://unicom-project.eu/fhir/StructureDefinition/PPLOrganization"]
      },
      "text" : {
        "status" : "generated",
        "div" : "<div xmlns=\"http://www.w3.org/1999/xhtml\"><a name=\"Organization_LOC-100005555-PerrigoSverigeAB\"> </a><p><b>Generated Narrative: Organization</b><a name=\"LOC-100005555-PerrigoSverigeAB\"> </a><a name=\"hcLOC-100005555-PerrigoSverigeAB\"> </a></p><div style=\"display: inline-block; background-color: #d9e0e7; padding: 6px; margin: 4px; border: 1px solid #8da1b4; border-radius: 5px; line-height: 60%\"><p style=\"margin-bottom: 0px\">Resource Organization &quot;LOC-100005555-PerrigoSverigeAB&quot; </p><p style=\"margin-bottom: 0px\">Profile: <a href=\"StructureDefinition-PPLOrganization.html\">PPL Organization</a></p></div><p><b>identifier</b>: <code>https://spor.ema.europa.eu/v1/locations</code>/LOC-100005555</p><p><b>name</b>: Perrigo Sverige AB</p></div>"
      },
      "identifier" : [{
        "system" : "https://spor.ema.europa.eu/v1/locations",
        "value" : "LOC-100005555"
      }],
      "name" : "Perrigo Sverige AB"
    }
  },
  {
    "fullUrl" : "https://hl7-eu.github.io/unicom-ig/branches/mpd-r4b/AdministrableProductDefinition-Panodil500mgoralsolutionsachet-SE-PLC-APD",
    "resource" : {
      "resourceType" : "AdministrableProductDefinition",
      "id" : "Panodil500mgoralsolutionsachet-SE-PLC-APD",
      "meta" : {
        "profile" : ["http://unicom-project.eu/fhir/StructureDefinition/PPLAdministrableProductDefinition"]
      },
      "text" : {
        "status" : "generated",
        "div" : "<div xmlns=\"http://www.w3.org/1999/xhtml\"><a name=\"AdministrableProductDefinition_Panodil500mgoralsolutionsachet-SE-PLC-APD\"> </a><p><b>Generated Narrative: AdministrableProductDefinition</b><a name=\"Panodil500mgoralsolutionsachet-SE-PLC-APD\"> </a><a name=\"hcPanodil500mgoralsolutionsachet-SE-PLC-APD\"> </a></p><div style=\"display: inline-block; background-color: #d9e0e7; padding: 6px; margin: 4px; border: 1px solid #8da1b4; border-radius: 5px; line-height: 60%\"><p style=\"margin-bottom: 0px\">Resource AdministrableProductDefinition &quot;Panodil500mgoralsolutionsachet-SE-PLC-APD&quot; </p><p style=\"margin-bottom: 0px\">Profile: <a href=\"StructureDefinition-PPLAdministrableProductDefinition.html\">PPL Administrable Product profile</a></p></div><p><b>status</b>: active</p><p><b>formOf</b>: See on this page: MedicinalProductDefinition/Panodil500mgoralsolutionsachet-SE-PLC-MPD</p><p><b>administrableDoseForm</b>: Oral solution <span style=\"background: LightGoldenRodYellow; margin: 4px; border: 1px solid khaki\"> (<a href=\"CodeSystem-pharmaceutical-dose-form-ema-cs.html\">Pharmaceutical Dose Form EMA</a>#100000073646)</span></p><p><b>producedFrom</b>: See on this page: ManufacturedItemDefinition/Panodil500mgoralsolutionsachet-SE-PLC-MID</p><h3>RouteOfAdministrations</h3><table class=\"grid\"><tr><td style=\"display: none\">-</td><td><b>Code</b></td></tr><tr><td style=\"display: none\">*</td><td>Oral use <span style=\"background: LightGoldenRodYellow; margin: 4px; border: 1px solid khaki\"> (<a href=\"CodeSystem-routes-and-methods-of-administration-ema-cs.html\">Routes and Methods of Administration EMA</a>#100000073619)</span></td></tr></table></div>"
      },
      "status" : "active",
      "formOf" : [{
        "reference" : "MedicinalProductDefinition/Panodil500mgoralsolutionsachet-SE-PLC-MPD"
      }],
      "administrableDoseForm" : {
        "coding" : [{
          "system" : "https://spor.ema.europa.eu/v1/lists/200000000004",
          "code" : "100000073646",
          "display" : "Oral solution"
        }]
      },
      "producedFrom" : [{
        "reference" : "ManufacturedItemDefinition/Panodil500mgoralsolutionsachet-SE-PLC-MID"
      }],
      "routeOfAdministration" : [{
        "code" : {
          "coding" : [{
            "system" : "https://spor.ema.europa.eu/v1/lists/100000073345",
            "code" : "100000073619",
            "display" : "Oral use"
          }]
        }
      }]
    }
  },
  {
    "fullUrl" : "https://hl7-eu.github.io/unicom-ig/branches/mpd-r4b/PackagedProductDefinition-Panodil500mgoralsolutionsachet-SE-PLC-PackageProductDef",
    "resource" : {
      "resourceType" : "PackagedProductDefinition",
      "id" : "Panodil500mgoralsolutionsachet-SE-PLC-PackageProductDef",
      "meta" : {
        "profile" : ["http://unicom-project.eu/fhir/StructureDefinition/PPLPackagedProductDefinition"]
      },
      "text" : {
        "status" : "generated",
        "div" : "<div xmlns=\"http://www.w3.org/1999/xhtml\"><a name=\"PackagedProductDefinition_Panodil500mgoralsolutionsachet-SE-PLC-PackageProductDef\"> </a><p><b>Generated Narrative: PackagedProductDefinition</b><a name=\"Panodil500mgoralsolutionsachet-SE-PLC-PackageProductDef\"> </a><a name=\"hcPanodil500mgoralsolutionsachet-SE-PLC-PackageProductDef\"> </a></p><div style=\"display: inline-block; background-color: #d9e0e7; padding: 6px; margin: 4px; border: 1px solid #8da1b4; border-radius: 5px; line-height: 60%\"><p style=\"margin-bottom: 0px\">Resource PackagedProductDefinition &quot;Panodil500mgoralsolutionsachet-SE-PLC-PackageProductDef&quot; </p><p style=\"margin-bottom: 0px\">Profile: <a href=\"StructureDefinition-PPLPackagedProductDefinition.html\">PPL Packaged Product profile</a></p></div><p><b>identifier</b>: <code>http://ema.europa.eu/example/pcid</code>/?ngen-9?</p><p><b>packageFor</b>: See on this page: MedicinalProductDefinition/Panodil500mgoralsolutionsachet-SE-PLC-MPD</p><p><b>containedItemQuantity</b>: 12 Sachet<span style=\"background: LightGoldenRodYellow\"> (Details: https://spor.ema.europa.eu/v1/lists/200000000014 code 200000002143 = 'Sachet')</span></p><p><b>description</b>: Dospåsar, 12 st</p><h3>MarketingStatuses</h3><table class=\"grid\"><tr><td style=\"display: none\">-</td><td><b>Country</b></td><td><b>Status</b></td></tr><tr><td style=\"display: none\">*</td><td>Kingdom of Sweden <span style=\"background: LightGoldenRodYellow; margin: 4px; border: 1px solid khaki\"> (<a href=\"CodeSystem-country-ema-cs.html\">Country EMA</a>#100000000535)</span></td><td>Marketed <span style=\"background: LightGoldenRodYellow; margin: 4px; border: 1px solid khaki\"> (<a href=\"CodeSystem-Marketing-Status-ema-cs.html\">Marketing Status EMA</a>#100000072083)</span></td></tr></table><blockquote><p><b>packaging</b></p><p><b>type</b>: Box <span style=\"background: LightGoldenRodYellow; margin: 4px; border: 1px solid khaki\"> (<a href=\"CodeSystem-packaging-ema-cs.html\">Packaging EMA SPOR</a>#100000073498)</span></p><p><b>quantity</b>: 1</p><p><b>material</b>: Cardboard <span style=\"background: LightGoldenRodYellow; margin: 4px; border: 1px solid khaki\"> (<a href=\"CodeSystem-material-ema-cs.html\">Material EMA</a>#200000003529)</span></p><blockquote><p><b>containedItem</b></p><h3>Items</h3><table class=\"grid\"><tr><td style=\"display: none\">-</td><td><b>Reference</b></td></tr><tr><td style=\"display: none\">*</td><td>See on this page: ManufacturedItemDefinition/Panodil500mgoralsolutionsachet-SE-PLC-MID</td></tr></table><p><b>amount</b>: 12 Sachet<span style=\"background: LightGoldenRodYellow\"> (Details: https://spor.ema.europa.eu/v1/lists/200000000014 code 200000002143 = 'Sachet')</span></p></blockquote></blockquote></div>"
      },
      "identifier" : [{
        "system" : "http://ema.europa.eu/example/pcid"
      }],
      "packageFor" : [{
        "reference" : "MedicinalProductDefinition/Panodil500mgoralsolutionsachet-SE-PLC-MPD"
      }],
      "containedItemQuantity" : [{
        "value" : 12,
        "unit" : "Sachet",
        "system" : "https://spor.ema.europa.eu/v1/lists/200000000014",
        "code" : "200000002143"
      }],
      "description" : "Dospåsar, 12 st",
      "marketingStatus" : [{
        "country" : {
          "coding" : [{
            "system" : "https://spor.ema.europa.eu/v1/lists/100000000002",
            "code" : "100000000535",
            "display" : "Kingdom of Sweden"
          }]
        },
        "status" : {
          "coding" : [{
            "system" : "https://spor.ema.europa.eu/v1/lists/100000072052",
            "code" : "100000072083",
            "display" : "Marketed"
          }]
        }
      }],
      "packaging" : {
        "type" : {
          "coding" : [{
            "system" : "https://spor.ema.europa.eu/v1/lists/100000073346",
            "code" : "100000073498",
            "display" : "Box"
          }]
        },
        "quantity" : 1,
        "material" : [{
          "coding" : [{
            "system" : "https://spor.ema.europa.eu/v1/lists/200000003199",
            "code" : "200000003529",
            "display" : "Cardboard"
          }]
        }],
        "containedItem" : [{
          "item" : {
            "reference" : {
              "reference" : "ManufacturedItemDefinition/Panodil500mgoralsolutionsachet-SE-PLC-MID"
            }
          },
          "amount" : {
            "value" : 12,
            "unit" : "Sachet",
            "system" : "https://spor.ema.europa.eu/v1/lists/200000000014",
            "code" : "200000002143"
          }
        }]
      }
    }
  },
  {
    "fullUrl" : "https://hl7-eu.github.io/unicom-ig/branches/mpd-r4b/ManufacturedItemDefinition-Panodil500mgoralsolutionsachet-SE-PLC-MID",
    "resource" : {
      "resourceType" : "ManufacturedItemDefinition",
      "id" : "Panodil500mgoralsolutionsachet-SE-PLC-MID",
      "meta" : {
        "profile" : ["http://unicom-project.eu/fhir/StructureDefinition/PPLManufacturedItemDefinition"]
      },
      "text" : {
        "status" : "generated",
        "div" : "<div xmlns=\"http://www.w3.org/1999/xhtml\"><a name=\"ManufacturedItemDefinition_Panodil500mgoralsolutionsachet-SE-PLC-MID\"> </a><p><b>Generated Narrative: ManufacturedItemDefinition</b><a name=\"Panodil500mgoralsolutionsachet-SE-PLC-MID\"> </a><a name=\"hcPanodil500mgoralsolutionsachet-SE-PLC-MID\"> </a></p><div style=\"display: inline-block; background-color: #d9e0e7; padding: 6px; margin: 4px; border: 1px solid #8da1b4; border-radius: 5px; line-height: 60%\"><p style=\"margin-bottom: 0px\">Resource ManufacturedItemDefinition &quot;Panodil500mgoralsolutionsachet-SE-PLC-MID&quot; </p><p style=\"margin-bottom: 0px\">Profile: <a href=\"StructureDefinition-PPLManufacturedItemDefinition.html\">PPL Manufactured Item profile</a></p></div><p><b>status</b>: active</p><p><b>manufacturedDoseForm</b>: Powder for oral solution <span style=\"background: LightGoldenRodYellow; margin: 4px; border: 1px solid khaki\"> (<a href=\"CodeSystem-pharmaceutical-dose-form-ema-cs.html\">Pharmaceutical Dose Form EMA</a>#100000073364)</span></p><p><b>unitOfPresentation</b>: Sachet <span style=\"background: LightGoldenRodYellow; margin: 4px; border: 1px solid khaki\"> (<a href=\"CodeSystem-unit-of-presentation-ema-cs.html\">Unit of Presentation EMA</a>#200000002143)</span></p></div>"
      },
      "status" : "active",
      "manufacturedDoseForm" : {
        "coding" : [{
          "system" : "https://spor.ema.europa.eu/v1/lists/200000000004",
          "code" : "100000073364",
          "display" : "Powder for oral solution"
        }]
      },
      "unitOfPresentation" : {
        "coding" : [{
          "system" : "https://spor.ema.europa.eu/v1/lists/200000000014",
          "code" : "200000002143",
          "display" : "Sachet"
        }]
      }
    }
  },
  {
    "fullUrl" : "https://hl7-eu.github.io/unicom-ig/branches/mpd-r4b/Ingredient-Panodil500mgoralsolutionsachet-SE-PLC-Ingredient",
    "resource" : {
      "resourceType" : "Ingredient",
      "id" : "Panodil500mgoralsolutionsachet-SE-PLC-Ingredient",
      "meta" : {
        "profile" : ["http://unicom-project.eu/fhir/StructureDefinition/PPLIngredient"]
      },
      "text" : {
        "status" : "generated",
        "div" : "<div xmlns=\"http://www.w3.org/1999/xhtml\"><a name=\"Ingredient_Panodil500mgoralsolutionsachet-SE-PLC-Ingredient\"> </a><p><b>Generated Narrative: Ingredient</b><a name=\"Panodil500mgoralsolutionsachet-SE-PLC-Ingredient\"> </a><a name=\"hcPanodil500mgoralsolutionsachet-SE-PLC-Ingredient\"> </a></p><div style=\"display: inline-block; background-color: #d9e0e7; padding: 6px; margin: 4px; border: 1px solid #8da1b4; border-radius: 5px; line-height: 60%\"><p style=\"margin-bottom: 0px\">Resource Ingredient &quot;Panodil500mgoralsolutionsachet-SE-PLC-Ingredient&quot; </p><p style=\"margin-bottom: 0px\">Profile: <a href=\"StructureDefinition-PPLIngredient.html\">PPL Ingredient profile</a></p></div><p><b>status</b>: active</p><p><b>for</b>: </p><ul><li>See on this page: MedicinalProductDefinition/Panodil500mgoralsolutionsachet-SE-PLC-MPD</li><li>See on this page: ManufacturedItemDefinition/Panodil500mgoralsolutionsachet-SE-PLC-MID</li><li>See on this page: AdministrableProductDefinition/Panodil500mgoralsolutionsachet-SE-PLC-APD</li></ul><p><b>role</b>: Active <span style=\"background: LightGoldenRodYellow; margin: 4px; border: 1px solid khaki\"> (100000072050#100000072072)</span></p><blockquote><p><b>substance</b></p><h3>Codes</h3><table class=\"grid\"><tr><td style=\"display: none\">-</td><td><b>Concept</b></td></tr><tr><td style=\"display: none\">*</td><td>Paracetamol <span style=\"background: LightGoldenRodYellow; margin: 4px; border: 1px solid khaki\"> (<a href=\"CodeSystem-substance-sms-cs.html\">Substances EMA SPOR SMS</a>#100000090270)</span></td></tr></table><blockquote><p><b>strength</b></p><p><b>presentation</b>: 500 milligram(s)<span style=\"background: LightGoldenRodYellow\"> (Details: https://spor.ema.europa.eu/v1/lists/100000110633 code 100000110655 = 'milligram(s)')</span>/1 Sachet<span style=\"background: LightGoldenRodYellow\"> (Details: https://spor.ema.europa.eu/v1/lists/200000000014 code 200000002143 = 'Sachet')</span></p><blockquote><p><b>referenceStrength</b></p><h3>Substances</h3><table class=\"grid\"><tr><td style=\"display: none\">-</td><td><b>Concept</b></td></tr><tr><td style=\"display: none\">*</td><td>Paracetamol <span style=\"background: LightGoldenRodYellow; margin: 4px; border: 1px solid khaki\"> (<a href=\"CodeSystem-substance-sms-cs.html\">Substances EMA SPOR SMS</a>#100000090270)</span></td></tr></table><p><b>strength</b>: 500 milligram(s)<span style=\"background: LightGoldenRodYellow\"> (Details: https://spor.ema.europa.eu/v1/lists/100000110633 code 100000110655 = 'milligram(s)')</span>/1 Sachet<span style=\"background: LightGoldenRodYellow\"> (Details: https://spor.ema.europa.eu/v1/lists/200000000014 code 200000002143 = 'Sachet')</span></p></blockquote></blockquote></blockquote></div>"
      },
      "status" : "active",
      "for" : [{
        "reference" : "MedicinalProductDefinition/Panodil500mgoralsolutionsachet-SE-PLC-MPD"
      },
      {
        "reference" : "ManufacturedItemDefinition/Panodil500mgoralsolutionsachet-SE-PLC-MID"
      },
      {
        "reference" : "AdministrableProductDefinition/Panodil500mgoralsolutionsachet-SE-PLC-APD"
      }],
      "role" : {
        "coding" : [{
          "system" : "https://spor.ema.europa.eu/v1/lists/100000072050",
          "code" : "100000072072",
          "display" : "Active"
        }]
      },
      "substance" : {
        "code" : {
          "concept" : {
            "coding" : [{
              "system" : "https://spor.ema.europa.eu/v2/SubstanceDefinition",
              "code" : "100000090270",
              "display" : "Paracetamol"
            }]
          }
        },
        "strength" : [{
          "presentationRatio" : {
            "numerator" : {
              "value" : 500,
              "unit" : "milligram(s)",
              "system" : "https://spor.ema.europa.eu/v1/lists/100000110633",
              "code" : "100000110655"
            },
            "denominator" : {
              "value" : 1,
              "unit" : "Sachet",
              "system" : "https://spor.ema.europa.eu/v1/lists/200000000014",
              "code" : "200000002143"
            }
          },
          "referenceStrength" : [{
            "substance" : {
              "concept" : {
                "coding" : [{
                  "system" : "https://spor.ema.europa.eu/v2/SubstanceDefinition",
                  "code" : "100000090270",
                  "display" : "Paracetamol"
                }]
              }
            },
            "strengthRatio" : {
              "numerator" : {
                "value" : 500,
                "unit" : "milligram(s)",
                "system" : "https://spor.ema.europa.eu/v1/lists/100000110633",
                "code" : "100000110655"
              },
              "denominator" : {
                "value" : 1,
                "unit" : "Sachet",
                "system" : "https://spor.ema.europa.eu/v1/lists/200000000014",
                "code" : "200000002143"
              }
            }
          }]
        }]
      }
    }
  }]
}