<?xml version="1.0" encoding="UTF-8"?>

<Bundle xmlns="http://hl7.org/fhir">
  <id value="012-Panodil-500mg-SolutionInSachet-SE-FullProduct"/>
  <type value="collection"/>
  <entry>
    <fullUrl value="https://hl7-eu.github.io/unicom-ig/branches/mpd-r4b/MedicinalProductDefinition-Panodil500mgoralsolutionsachet-SE-PLC-MPD"/>
    <resource>
      <MedicinalProductDefinition>
        <id value="Panodil500mgoralsolutionsachet-SE-PLC-MPD"/>
        <meta>
          <profile value="http://unicom-project.eu/fhir/StructureDefinition/PPLMedicinalProductDefinition"/>
        </meta>
        <text>
          <status value="generated"/><div xmlns="http://www.w3.org/1999/xhtml"><p><b>Generated Narrative: MedicinalProductDefinition</b><a name="Panodil500mgoralsolutionsachet-SE-PLC-MPD"> </a></p><div style="display: inline-block; background-color: #d9e0e7; padding: 6px; margin: 4px; border: 1px solid #8da1b4; border-radius: 5px; line-height: 60%"><p style="margin-bottom: 0px">Resource MedicinalProductDefinition &quot;Panodil500mgoralsolutionsachet-SE-PLC-MPD&quot; </p><p style="margin-bottom: 0px">Profile: <a href="StructureDefinition-PPLMedicinalProductDefinition.html">PPL Medicinal Product profile</a></p></div><p><b>identifier</b>: id: 2283</p><p><b>domain</b>: Human use <span style="background: LightGoldenRodYellow; margin: 4px; border: 1px solid khaki"> (<a href="CodeSystem-domain-ema-cs.html">Domain EMA</a>#100000000012)</span></p><p><b>status</b>: Current <span style="background: LightGoldenRodYellow; margin: 4px; border: 1px solid khaki"> (<a href="CodeSystem-recordStatus-ema-cs.html">Record Status EMA SPOR</a>#200000005004)</span></p><p><b>combinedPharmaceuticalDoseForm</b>: Powder for oral solution in sachet <span style="background: LightGoldenRodYellow; margin: 4px; border: 1px solid khaki"> (<a href="CodeSystem-combined-term-ema-cs.html">Combined Term EMA</a>#100000125752)</span></p><p><b>indication</b>: Panodil 500 mg pulver till oral lösning i dospåse används mot huvudvärk, tandvärk, feber vid förkylningssjukdomar, menstruationssmärtor, muskel- och ledvärk, som analgetikum vid reumatiska smärtor, hyperpyrexi. För vuxna och barn över 12 år.</p><p><b>legalStatusOfSupply</b>: Medicinal product not subject to medical prescription <span style="background: LightGoldenRodYellow; margin: 4px; border: 1px solid khaki"> (<a href="CodeSystem-legal-status-for-the-supply-ema-cs.html">Legal Status for the Supply EMA</a>#100000072076)</span></p><p><b>classification</b>: Paracetamol <span style="background: LightGoldenRodYellow; margin: 4px; border: 1px solid khaki"> (<a href="CodeSystem-ATC-Human-EMA.html">ATC Human EMA</a>#100000097305)</span>, Paracetamol <span style="background: LightGoldenRodYellow; margin: 4px; border: 1px solid khaki"> (<a href="http://terminology.hl7.org/5.3.0/CodeSystem-v3-WC.html">WHO ATC</a>#N02BE01)</span></p><blockquote><p><b>name</b></p><p><b>productName</b>: Panodil 500 mg pulver till oral lösning i dospåse</p><blockquote><p><b>part</b></p><p><b>part</b>: Panodil</p><p><b>type</b>: Invented name part <span style="background: LightGoldenRodYellow; margin: 4px; border: 1px solid khaki"> (220000000000#220000000002)</span></p></blockquote><blockquote><p><b>part</b></p><p><b>part</b>: 500 mg</p><p><b>type</b>: Strength part <span style="background: LightGoldenRodYellow; margin: 4px; border: 1px solid khaki"> (220000000000#220000000004)</span></p></blockquote><blockquote><p><b>part</b></p><p><b>part</b>: pulver till oral lösning i dospåse</p><p><b>type</b>: Pharmaceutical dose form part <span style="background: LightGoldenRodYellow; margin: 4px; border: 1px solid khaki"> (220000000000#220000000005)</span></p></blockquote><h3>Usages</h3><table class="grid"><tr><td style="display: none">-</td><td><b>Country</b></td><td><b>Language</b></td></tr><tr><td style="display: none">*</td><td>Kingdom of Sweden <span style="background: LightGoldenRodYellow; margin: 4px; border: 1px solid khaki"> (<a href="CodeSystem-country-ema-cs.html">Country EMA</a>#100000000535)</span></td><td>Swedish <span style="background: LightGoldenRodYellow; margin: 4px; border: 1px solid khaki"> (<a href="http://terminology.hl7.org/5.3.0/CodeSystem-v3-ietf3066.html">Tags for the Identification of Languages</a>#sv)</span></td></tr></table></blockquote></div>
        </text>
        <identifier>
          <system value="http://ema.europa.eu/fhir/eurdId"/>
          <value value="2283"/>
        </identifier>
        <domain>
          <coding>
            <system value="https://spor.ema.europa.eu/v1/lists/100000000004"/>
            <code value="100000000012"/>
            <display value="Human use"/>
          </coding>
        </domain>
        <status>
          <coding>
            <system value="https://spor.ema.europa.eu/v1/lists/200000005003"/>
            <code value="200000005004"/>
            <display value="Current"/>
          </coding>
        </status>
        <combinedPharmaceuticalDoseForm>
          <coding>
            <system value="https://spor.ema.europa.eu/v1/lists/200000000007"/>
            <code value="100000125752"/>
            <display value="Powder for oral solution in sachet"/>
          </coding>
        </combinedPharmaceuticalDoseForm>
        <indication value="Panodil 500 mg pulver till oral lösning i dospåse används mot huvudvärk, tandvärk, feber vid förkylningssjukdomar, menstruationssmärtor, muskel- och ledvärk, som analgetikum vid reumatiska smärtor, hyperpyrexi. För vuxna och barn över 12 år."/>
        <legalStatusOfSupply>
          <coding>
            <system value="https://spor.ema.europa.eu/v1/lists/100000072051"/>
            <code value="100000072076"/>
            <display value="Medicinal product not subject to medical prescription"/>
          </coding>
        </legalStatusOfSupply>
        <classification>
          <coding>
            <system value="https://spor.ema.europa.eu/v1/lists/100000093533"/>
            <code value="100000097305"/>
            <display value="Paracetamol"/>
          </coding>
        </classification>
        <classification>
          <coding>
            <system value="http://www.whocc.no/atc"/>
            <code value="N02BE01"/>
            <display value="Paracetamol"/>
          </coding>
        </classification>
        <name>
          <productName value="Panodil 500 mg pulver till oral lösning i dospåse"/>
          <part>
            <part value="Panodil"/>
            <type>
              <coding>
                <system value="https://spor.ema.europa.eu/v1/lists/220000000000"/>
                <code value="220000000002"/>
                <display value="Invented name part"/>
              </coding>
            </type>
          </part>
          <part>
            <part value="500 mg"/>
            <type>
              <coding>
                <system value="https://spor.ema.europa.eu/v1/lists/220000000000"/>
                <code value="220000000004"/>
                <display value="Strength part"/>
              </coding>
            </type>
          </part>
          <part>
            <part value="pulver till oral lösning i dospåse"/>
            <type>
              <coding>
                <system value="https://spor.ema.europa.eu/v1/lists/220000000000"/>
                <code value="220000000005"/>
                <display value="Pharmaceutical dose form part"/>
              </coding>
            </type>
          </part>
          <usage>
            <country>
              <coding>
                <system value="https://spor.ema.europa.eu/v1/lists/100000000002"/>
                <code value="100000000535"/>
                <display value="Kingdom of Sweden"/>
              </coding>
            </country>
            <language>
              <coding>
                <system value="urn:ietf:bcp:47"/>
                <code value="sv"/>
                <display value="Swedish"/>
              </coding>
            </language>
          </usage>
        </name>
      </MedicinalProductDefinition>
    </resource>
  </entry>
  <entry>
    <fullUrl value="https://hl7-eu.github.io/unicom-ig/branches/mpd-r4b/RegulatedAuthorization-Panodil500mgoralsolutionsachet-SE-PLC-RegulatedAuthorization"/>
    <resource>
      <RegulatedAuthorization>
        <id value="Panodil500mgoralsolutionsachet-SE-PLC-RegulatedAuthorization"/>
        <meta>
          <profile value="http://unicom-project.eu/fhir/StructureDefinition/PPLRegulatedAuthorization"/>
        </meta>
        <text>
          <status value="generated"/><div xmlns="http://www.w3.org/1999/xhtml"><p><b>Generated Narrative: RegulatedAuthorization</b><a name="Panodil500mgoralsolutionsachet-SE-PLC-RegulatedAuthorization"> </a></p><div style="display: inline-block; background-color: #d9e0e7; padding: 6px; margin: 4px; border: 1px solid #8da1b4; border-radius: 5px; line-height: 60%"><p style="margin-bottom: 0px">Resource RegulatedAuthorization &quot;Panodil500mgoralsolutionsachet-SE-PLC-RegulatedAuthorization&quot; </p><p style="margin-bottom: 0px">Profile: <a href="StructureDefinition-PPLRegulatedAuthorization.html">PPL Marketing Authorisation profile</a></p></div><p><b>identifier</b>: id: 12391</p><p><b>subject</b>: <a href="#MedicinalProductDefinition_Panodil500mgoralsolutionsachet-SE-PLC-MPD">See above (MedicinalProductDefinition/Panodil500mgoralsolutionsachet-SE-PLC-MPD)</a></p><p><b>type</b>: Marketing Authorisation <span style="background: LightGoldenRodYellow; margin: 4px; border: 1px solid khaki"> (220000000060#220000000061)</span></p><p><b>region</b>: Kingdom of Sweden <span style="background: LightGoldenRodYellow; margin: 4px; border: 1px solid khaki"> (<a href="CodeSystem-country-ema-cs.html">Country EMA</a>#100000000535)</span></p><p><b>status</b>: Valid <span style="background: LightGoldenRodYellow; margin: 4px; border: 1px solid khaki"> (<a href="CodeSystem-regulatoryStatus-ema-cs.html">Regulatory Entitlement Status EMA SPOR</a>#100000072099)</span></p><p><b>statusDate</b>: 1994-10-28</p><p><b>holder</b>: <a href="#Organization_LOC-100005555-PerrigoSverigeAB">See above (Organization/LOC-100005555-PerrigoSverigeAB)</a></p></div>
        </text>
        <identifier>
          <value value="12391"/>
        </identifier>
        <subject>
          <reference value="MedicinalProductDefinition/Panodil500mgoralsolutionsachet-SE-PLC-MPD"/>
        </subject>
        <type>
          <coding>
            <system value="https://spor.ema.europa.eu/v1/lists/220000000060"/>
            <code value="220000000061"/>
            <display value="Marketing Authorisation"/>
          </coding>
        </type>
        <region>
          <coding>
            <system value="https://spor.ema.europa.eu/v1/lists/100000000002"/>
            <code value="100000000535"/>
            <display value="Kingdom of Sweden"/>
          </coding>
        </region>
        <status>
          <coding>
            <system value="https://spor.ema.europa.eu/v1/lists/100000072049"/>
            <code value="100000072099"/>
            <display value="Valid"/>
          </coding>
        </status>
        <statusDate value="1994-10-28"/>
        <holder>
          <reference value="Organization/LOC-100005555-PerrigoSverigeAB"/>
        </holder>
      </RegulatedAuthorization>
    </resource>
  </entry>
  <entry>
    <fullUrl value="https://hl7-eu.github.io/unicom-ig/branches/mpd-r4b/Organization-LOC-100005555-PerrigoSverigeAB"/>
    <resource>
      <Organization>
        <id value="LOC-100005555-PerrigoSverigeAB"/>
        <meta>
          <profile value="http://unicom-project.eu/fhir/StructureDefinition/PPLOrganization"/>
        </meta>
        <text>
          <status value="generated"/><div xmlns="http://www.w3.org/1999/xhtml"><p><b>Generated Narrative: Organization</b><a name="LOC-100005555-PerrigoSverigeAB"> </a></p><div style="display: inline-block; background-color: #d9e0e7; padding: 6px; margin: 4px; border: 1px solid #8da1b4; border-radius: 5px; line-height: 60%"><p style="margin-bottom: 0px">Resource Organization &quot;LOC-100005555-PerrigoSverigeAB&quot; </p><p style="margin-bottom: 0px">Profile: <a href="StructureDefinition-PPLOrganization.html">PPL Organization</a></p></div><p><b>identifier</b>: id: LOC-100005555</p><p><b>name</b>: Perrigo Sverige AB</p></div>
        </text>
        <identifier>
          <system value="https://spor.ema.europa.eu/v1/locations"/>
          <value value="LOC-100005555"/>
        </identifier>
        <name value="Perrigo Sverige AB"/>
      </Organization>
    </resource>
  </entry>
  <entry>
    <fullUrl value="https://hl7-eu.github.io/unicom-ig/branches/mpd-r4b/AdministrableProductDefinition-Panodil500mgoralsolutionsachet-SE-PLC-APD"/>
    <resource>
      <AdministrableProductDefinition>
        <id value="Panodil500mgoralsolutionsachet-SE-PLC-APD"/>
        <meta>
          <profile value="http://unicom-project.eu/fhir/StructureDefinition/PPLAdministrableProductDefinition"/>
        </meta>
        <text>
          <status value="generated"/><div xmlns="http://www.w3.org/1999/xhtml"><p><b>Generated Narrative: AdministrableProductDefinition</b><a name="Panodil500mgoralsolutionsachet-SE-PLC-APD"> </a></p><div style="display: inline-block; background-color: #d9e0e7; padding: 6px; margin: 4px; border: 1px solid #8da1b4; border-radius: 5px; line-height: 60%"><p style="margin-bottom: 0px">Resource AdministrableProductDefinition &quot;Panodil500mgoralsolutionsachet-SE-PLC-APD&quot; </p><p style="margin-bottom: 0px">Profile: <a href="StructureDefinition-PPLAdministrableProductDefinition.html">PPL Administrable Product profile</a></p></div><p><b>status</b>: active</p><p><b>formOf</b>: <a href="#MedicinalProductDefinition_Panodil500mgoralsolutionsachet-SE-PLC-MPD">See above (MedicinalProductDefinition/Panodil500mgoralsolutionsachet-SE-PLC-MPD)</a></p><p><b>administrableDoseForm</b>: Oral solution <span style="background: LightGoldenRodYellow; margin: 4px; border: 1px solid khaki"> (<a href="CodeSystem-pharmaceutical-dose-form-ema-cs.html">Pharmaceutical Dose Form EMA</a>#100000073646)</span></p><p><b>producedFrom</b>: <a href="#ManufacturedItemDefinition_Panodil500mgoralsolutionsachet-SE-PLC-MID">See above (ManufacturedItemDefinition/Panodil500mgoralsolutionsachet-SE-PLC-MID)</a></p><h3>RouteOfAdministrations</h3><table class="grid"><tr><td style="display: none">-</td><td><b>Code</b></td></tr><tr><td style="display: none">*</td><td>Oral use <span style="background: LightGoldenRodYellow; margin: 4px; border: 1px solid khaki"> (<a href="CodeSystem-routes-and-methods-of-administration-ema-cs.html">Routes and Methods of Administration EMA</a>#100000073619)</span></td></tr></table></div>
        </text>
        <status value="active"/>
        <formOf>
          <reference value="MedicinalProductDefinition/Panodil500mgoralsolutionsachet-SE-PLC-MPD"/>
        </formOf>
        <administrableDoseForm>
          <coding>
            <system value="https://spor.ema.europa.eu/v1/lists/200000000004"/>
            <code value="100000073646"/>
            <display value="Oral solution"/>
          </coding>
        </administrableDoseForm>
        <producedFrom>
          <reference value="ManufacturedItemDefinition/Panodil500mgoralsolutionsachet-SE-PLC-MID"/>
        </producedFrom>
        <routeOfAdministration>
          <code>
            <coding>
              <system value="https://spor.ema.europa.eu/v1/lists/100000073345"/>
              <code value="100000073619"/>
              <display value="Oral use"/>
            </coding>
          </code>
        </routeOfAdministration>
      </AdministrableProductDefinition>
    </resource>
  </entry>
  <entry>
    <fullUrl value="https://hl7-eu.github.io/unicom-ig/branches/mpd-r4b/PackagedProductDefinition-Panodil500mgoralsolutionsachet-SE-PLC-PackageProductDef"/>
    <resource>
      <PackagedProductDefinition>
        <id value="Panodil500mgoralsolutionsachet-SE-PLC-PackageProductDef"/>
        <meta>
          <profile value="http://unicom-project.eu/fhir/StructureDefinition/PPLPackagedProductDefinition"/>
        </meta>
        <text>
          <status value="generated"/><div xmlns="http://www.w3.org/1999/xhtml"><p><b>Generated Narrative: PackagedProductDefinition</b><a name="Panodil500mgoralsolutionsachet-SE-PLC-PackageProductDef"> </a></p><div style="display: inline-block; background-color: #d9e0e7; padding: 6px; margin: 4px; border: 1px solid #8da1b4; border-radius: 5px; line-height: 60%"><p style="margin-bottom: 0px">Resource PackagedProductDefinition &quot;Panodil500mgoralsolutionsachet-SE-PLC-PackageProductDef&quot; </p><p style="margin-bottom: 0px">Profile: <a href="StructureDefinition-PPLPackagedProductDefinition.html">PPL Packaged Product profile</a></p></div><p><b>identifier</b>: id: ?ngen-9?</p><p><b>packageFor</b>: <a href="#MedicinalProductDefinition_Panodil500mgoralsolutionsachet-SE-PLC-MPD">See above (MedicinalProductDefinition/Panodil500mgoralsolutionsachet-SE-PLC-MPD)</a></p><p><b>containedItemQuantity</b>: 12 Sachet<span style="background: LightGoldenRodYellow"> (Details: https://spor.ema.europa.eu/v1/lists/200000000014 code 200000002143 = 'Sachet')</span></p><p><b>description</b>: Dospåsar, 12 st</p><h3>MarketingStatuses</h3><table class="grid"><tr><td style="display: none">-</td><td><b>Country</b></td><td><b>Status</b></td></tr><tr><td style="display: none">*</td><td>Kingdom of Sweden <span style="background: LightGoldenRodYellow; margin: 4px; border: 1px solid khaki"> (<a href="CodeSystem-country-ema-cs.html">Country EMA</a>#100000000535)</span></td><td>Marketed <span style="background: LightGoldenRodYellow; margin: 4px; border: 1px solid khaki"> (<a href="CodeSystem-Marketing-Status-ema-cs.html">Marketing Status EMA</a>#100000072083)</span></td></tr></table><blockquote><p><b>packaging</b></p><p><b>type</b>: Box <span style="background: LightGoldenRodYellow; margin: 4px; border: 1px solid khaki"> (<a href="CodeSystem-packaging-ema-cs.html">Packaging EMA SPOR</a>#100000073498)</span></p><p><b>quantity</b>: 1</p><p><b>material</b>: Cardboard <span style="background: LightGoldenRodYellow; margin: 4px; border: 1px solid khaki"> (<a href="CodeSystem-material-ema-cs.html">Material EMA</a>#200000003529)</span></p><blockquote><p><b>containedItem</b></p><h3>Items</h3><table class="grid"><tr><td style="display: none">-</td><td><b>Reference</b></td></tr><tr><td style="display: none">*</td><td><a href="#ManufacturedItemDefinition_Panodil500mgoralsolutionsachet-SE-PLC-MID">See above (ManufacturedItemDefinition/Panodil500mgoralsolutionsachet-SE-PLC-MID)</a></td></tr></table><p><b>amount</b>: 12 Sachet<span style="background: LightGoldenRodYellow"> (Details: https://spor.ema.europa.eu/v1/lists/200000000014 code 200000002143 = 'Sachet')</span></p></blockquote></blockquote></div>
        </text>
        <identifier>
          <system value="http://ema.europa.eu/example/pcid"/>
        </identifier>
        <packageFor>
          <reference value="MedicinalProductDefinition/Panodil500mgoralsolutionsachet-SE-PLC-MPD"/>
        </packageFor>
        <containedItemQuantity>
          <value value="12"/>
          <unit value="Sachet"/>
          <system value="https://spor.ema.europa.eu/v1/lists/200000000014"/>
          <code value="200000002143"/>
        </containedItemQuantity>
        <description value="Dospåsar, 12 st"/>
        <marketingStatus>
          <country>
            <coding>
              <system value="https://spor.ema.europa.eu/v1/lists/100000000002"/>
              <code value="100000000535"/>
              <display value="Kingdom of Sweden"/>
            </coding>
          </country>
          <status>
            <coding>
              <system value="https://spor.ema.europa.eu/v1/lists/100000072052"/>
              <code value="100000072083"/>
              <display value="Marketed"/>
            </coding>
          </status>
        </marketingStatus>
        <packaging>
          <type>
            <coding>
              <system value="https://spor.ema.europa.eu/v1/lists/100000073346"/>
              <code value="100000073498"/>
              <display value="Box"/>
            </coding>
          </type>
          <quantity value="1"/>
          <material>
            <coding>
              <system value="https://spor.ema.europa.eu/v1/lists/200000003199"/>
              <code value="200000003529"/>
              <display value="Cardboard"/>
            </coding>
          </material>
          <containedItem>
            <item>
              <reference>
                <reference value="ManufacturedItemDefinition/Panodil500mgoralsolutionsachet-SE-PLC-MID"/>
              </reference>
            </item>
            <amount>
              <value value="12"/>
              <unit value="Sachet"/>
              <system value="https://spor.ema.europa.eu/v1/lists/200000000014"/>
              <code value="200000002143"/>
            </amount>
          </containedItem>
        </packaging>
      </PackagedProductDefinition>
    </resource>
  </entry>
  <entry>
    <fullUrl value="https://hl7-eu.github.io/unicom-ig/branches/mpd-r4b/ManufacturedItemDefinition-Panodil500mgoralsolutionsachet-SE-PLC-MID"/>
    <resource>
      <ManufacturedItemDefinition>
        <id value="Panodil500mgoralsolutionsachet-SE-PLC-MID"/>
        <meta>
          <profile value="http://unicom-project.eu/fhir/StructureDefinition/PPLManufacturedItemDefinition"/>
        </meta>
        <text>
          <status value="generated"/><div xmlns="http://www.w3.org/1999/xhtml"><p><b>Generated Narrative: ManufacturedItemDefinition</b><a name="Panodil500mgoralsolutionsachet-SE-PLC-MID"> </a></p><div style="display: inline-block; background-color: #d9e0e7; padding: 6px; margin: 4px; border: 1px solid #8da1b4; border-radius: 5px; line-height: 60%"><p style="margin-bottom: 0px">Resource ManufacturedItemDefinition &quot;Panodil500mgoralsolutionsachet-SE-PLC-MID&quot; </p><p style="margin-bottom: 0px">Profile: <a href="StructureDefinition-PPLManufacturedItemDefinition.html">PPL Manufactured Item profile</a></p></div><p><b>status</b>: active</p><p><b>manufacturedDoseForm</b>: Powder for oral solution <span style="background: LightGoldenRodYellow; margin: 4px; border: 1px solid khaki"> (<a href="CodeSystem-pharmaceutical-dose-form-ema-cs.html">Pharmaceutical Dose Form EMA</a>#100000073364)</span></p><p><b>unitOfPresentation</b>: Sachet <span style="background: LightGoldenRodYellow; margin: 4px; border: 1px solid khaki"> (<a href="CodeSystem-unit-of-presentation-ema-cs.html">Unit of Presentation EMA</a>#200000002143)</span></p></div>
        </text>
        <status value="active"/>
        <manufacturedDoseForm>
          <coding>
            <system value="https://spor.ema.europa.eu/v1/lists/200000000004"/>
            <code value="100000073364"/>
            <display value="Powder for oral solution"/>
          </coding>
        </manufacturedDoseForm>
        <unitOfPresentation>
          <coding>
            <system value="https://spor.ema.europa.eu/v1/lists/200000000014"/>
            <code value="200000002143"/>
            <display value="Sachet"/>
          </coding>
        </unitOfPresentation>
      </ManufacturedItemDefinition>
    </resource>
  </entry>
  <entry>
    <fullUrl value="https://hl7-eu.github.io/unicom-ig/branches/mpd-r4b/Ingredient-Panodil500mgoralsolutionsachet-SE-PLC-Ingredient"/>
    <resource>
      <Ingredient>
        <id value="Panodil500mgoralsolutionsachet-SE-PLC-Ingredient"/>
        <meta>
          <profile value="http://unicom-project.eu/fhir/StructureDefinition/PPLIngredient"/>
        </meta>
        <text>
          <status value="generated"/><div xmlns="http://www.w3.org/1999/xhtml"><p><b>Generated Narrative: Ingredient</b><a name="Panodil500mgoralsolutionsachet-SE-PLC-Ingredient"> </a></p><div style="display: inline-block; background-color: #d9e0e7; padding: 6px; margin: 4px; border: 1px solid #8da1b4; border-radius: 5px; line-height: 60%"><p style="margin-bottom: 0px">Resource Ingredient &quot;Panodil500mgoralsolutionsachet-SE-PLC-Ingredient&quot; </p><p style="margin-bottom: 0px">Profile: <a href="StructureDefinition-PPLIngredient.html">PPL Ingredient profile</a></p></div><p><b>status</b>: active</p><p><b>for</b>: </p><ul><li><a href="#MedicinalProductDefinition_Panodil500mgoralsolutionsachet-SE-PLC-MPD">See above (MedicinalProductDefinition/Panodil500mgoralsolutionsachet-SE-PLC-MPD)</a></li><li><a href="#ManufacturedItemDefinition_Panodil500mgoralsolutionsachet-SE-PLC-MID">See above (ManufacturedItemDefinition/Panodil500mgoralsolutionsachet-SE-PLC-MID)</a></li><li><a href="#AdministrableProductDefinition_Panodil500mgoralsolutionsachet-SE-PLC-APD">See above (AdministrableProductDefinition/Panodil500mgoralsolutionsachet-SE-PLC-APD)</a></li></ul><p><b>role</b>: Active <span style="background: LightGoldenRodYellow; margin: 4px; border: 1px solid khaki"> (100000072050#100000072072)</span></p><blockquote><p><b>substance</b></p><h3>Codes</h3><table class="grid"><tr><td style="display: none">-</td><td><b>Concept</b></td></tr><tr><td style="display: none">*</td><td>Paracetamol <span style="background: LightGoldenRodYellow; margin: 4px; border: 1px solid khaki"> (<a href="CodeSystem-substance-sms-cs.html">Substances EMA SPOR SMS</a>#100000090270)</span></td></tr></table><blockquote><p><b>strength</b></p><p><b>presentation</b>: 500 milligram(s)<span style="background: LightGoldenRodYellow"> (Details: https://spor.ema.europa.eu/v1/lists/100000110633 code 100000110655 = 'milligram(s)')</span>/1 Sachet<span style="background: LightGoldenRodYellow"> (Details: https://spor.ema.europa.eu/v1/lists/200000000014 code 200000002143 = 'Sachet')</span></p><blockquote><p><b>referenceStrength</b></p><h3>Substances</h3><table class="grid"><tr><td style="display: none">-</td><td><b>Concept</b></td></tr><tr><td style="display: none">*</td><td>Paracetamol <span style="background: LightGoldenRodYellow; margin: 4px; border: 1px solid khaki"> (<a href="CodeSystem-substance-sms-cs.html">Substances EMA SPOR SMS</a>#100000090270)</span></td></tr></table><p><b>strength</b>: 500 milligram(s)<span style="background: LightGoldenRodYellow"> (Details: https://spor.ema.europa.eu/v1/lists/100000110633 code 100000110655 = 'milligram(s)')</span>/1 Sachet<span style="background: LightGoldenRodYellow"> (Details: https://spor.ema.europa.eu/v1/lists/200000000014 code 200000002143 = 'Sachet')</span></p></blockquote></blockquote></blockquote></div>
        </text>
        <status value="active"/>
        <for>
          <reference value="MedicinalProductDefinition/Panodil500mgoralsolutionsachet-SE-PLC-MPD"/>
        </for>
        <for>
          <reference value="ManufacturedItemDefinition/Panodil500mgoralsolutionsachet-SE-PLC-MID"/>
        </for>
        <for>
          <reference value="AdministrableProductDefinition/Panodil500mgoralsolutionsachet-SE-PLC-APD"/>
        </for>
        <role>
          <coding>
            <system value="https://spor.ema.europa.eu/v1/lists/100000072050"/>
            <code value="100000072072"/>
            <display value="Active"/>
          </coding>
        </role>
        <substance>
          <code>
            <concept>
              <coding>
                <system value="https://spor.ema.europa.eu/v2/SubstanceDefinition"/>
                <code value="100000090270"/>
                <display value="Paracetamol"/>
              </coding>
            </concept>
          </code>
          <strength>
            <presentationRatio>
              <numerator>
                <value value="500"/>
                <unit value="milligram(s)"/>
                <system value="https://spor.ema.europa.eu/v1/lists/100000110633"/>
                <code value="100000110655"/>
              </numerator>
              <denominator>
                <value value="1"/>
                <unit value="Sachet"/>
                <system value="https://spor.ema.europa.eu/v1/lists/200000000014"/>
                <code value="200000002143"/>
              </denominator>
            </presentationRatio>
            <referenceStrength>
              <substance>
                <concept>
                  <coding>
                    <system value="https://spor.ema.europa.eu/v2/SubstanceDefinition"/>
                    <code value="100000090270"/>
                    <display value="Paracetamol"/>
                  </coding>
                </concept>
              </substance>
              <strengthRatio>
                <numerator>
                  <value value="500"/>
                  <unit value="milligram(s)"/>
                  <system value="https://spor.ema.europa.eu/v1/lists/100000110633"/>
                  <code value="100000110655"/>
                </numerator>
                <denominator>
                  <value value="1"/>
                  <unit value="Sachet"/>
                  <system value="https://spor.ema.europa.eu/v1/lists/200000000014"/>
                  <code value="200000002143"/>
                </denominator>
              </strengthRatio>
            </referenceStrength>
          </strength>
        </substance>
      </Ingredient>
    </resource>
  </entry>
</Bundle>