{
  "resourceType": "Bundle",
  "id": "008-Clexane-60mg-0.6ml-EE-FullProduct",
  "type": "transaction",
  "entry": [
    {
      "fullUrl": "https://hl7-eu.github.io/unicom-ig/branches/mpd-r4b/MedicinalProductDefinition/Clexane-60mg-0.6ml-solinj-EE-MPD",
      "resource": {
        "resourceType": "MedicinalProductDefinition",
        "id": "Clexane-60mg-0.6ml-solinj-EE-MPD",
        "meta": {
          "profile": [
            "http://unicom-project.eu/fhir/StructureDefinition/PPLMedicinalProductDefinition"
          ]
        },
        "text": {
          "status": "generated",
          "div": "<div xmlns=\"http://www.w3.org/1999/xhtml\"><p><b>Generated Narrative: MedicinalProductDefinition</b><a name=\"Clexane-60mg-0.6ml-solinj-EE-MPD\"> </a></p><div style=\"display: inline-block; background-color: #d9e0e7; padding: 6px; margin: 4px; border: 1px solid #8da1b4; border-radius: 5px; line-height: 60%\"><p style=\"margin-bottom: 0px\">Resource MedicinalProductDefinition &quot;Clexane-60mg-0.6ml-solinj-EE-MPD&quot; </p><p style=\"margin-bottom: 0px\">Profile: <a href=\"StructureDefinition-PPLMedicinalProductDefinition.html\">PPL Medicinal Product profile</a></p></div><p><b>identifier</b>: id: EE-100001368-34217</p><p><b>domain</b>: Human use <span style=\"background: LightGoldenRodYellow; margin: 4px; border: 1px solid khaki\"> (<a href=\"CodeSystem-domain-ema-cs.html\">Domain EMA</a>#100000000012)</span></p><p><b>status</b>: Current <span style=\"background: LightGoldenRodYellow; margin: 4px; border: 1px solid khaki\"> (200000005003#200000005004)</span></p><p><b>combinedPharmaceuticalDoseForm</b>: Solution for injection <span style=\"background: LightGoldenRodYellow; margin: 4px; border: 1px solid khaki\"> (<a href=\"CodeSystem-pharmaceutical-dose-form-ema-cs.html\">Pharmaceutical Dose Form EMA</a>#100000073863)</span></p><p><b>legalStatusOfSupply</b>: Medicinal product subject to medical prescription <span style=\"background: LightGoldenRodYellow; margin: 4px; border: 1px solid khaki\"> (<a href=\"CodeSystem-legal-status-for-the-supply-ema-cs.html\">Legal Status for the Supply EMA</a>#100000072084)</span></p><p><b>classification</b>: Enoxaparin <span style=\"background: LightGoldenRodYellow; margin: 4px; border: 1px solid khaki\"> (100000093533#100000094266; <a href=\"http://terminology.hl7.org/4.0.0/CodeSystem-v3-WC.html\">WHO ATC</a>#B01AB05)</span></p><blockquote><p><b>name</b></p><p><b>productName</b>: Clexane, 6000 RÜ (60 mg)/0,6 ml süstelahus süstlis</p><blockquote><p><b>namePart</b></p><p><b>part</b>: Clexane</p><p><b>type</b>: Invented name part <span style=\"background: LightGoldenRodYellow; margin: 4px; border: 1px solid khaki\"> (220000000000#220000000002)</span></p></blockquote><blockquote><p><b>namePart</b></p><p><b>part</b>: 6000 RÜ</p><p><b>type</b>: Strength part <span style=\"background: LightGoldenRodYellow; margin: 4px; border: 1px solid khaki\"> (220000000000#220000000004)</span></p></blockquote><blockquote><p><b>namePart</b></p><p><b>part</b>: süstelahus süstlis</p><p><b>type</b>: Pharmaceutical dose form part <span style=\"background: LightGoldenRodYellow; margin: 4px; border: 1px solid khaki\"> (220000000000#220000000005)</span></p></blockquote><h3>CountryLanguages</h3><table class=\"grid\"><tr><td>-</td><td><b>Country</b></td><td><b>Language</b></td></tr><tr><td>*</td><td>Republic of Estonia <span style=\"background: LightGoldenRodYellow; margin: 4px; border: 1px solid khaki\"> (<a href=\"CodeSystem-country-ema-cs.html\">Country EMA</a>#100000000388)</span></td><td>Estonian <span style=\"background: LightGoldenRodYellow; margin: 4px; border: 1px solid khaki\"> (<a href=\"CodeSystem-language-ema-cs.html\">Language EMA</a>#100000072172)</span></td></tr></table></blockquote></div>"
        },
        "identifier": [
          {
            "system": "http://ema.europa.eu/fhir/mpId",
            "value": "EE-100001368-34217"
          }
        ],
        "domain": {
          "coding": [
            {
              "system": "https://spor.ema.europa.eu/v1/lists/100000000004",
              "code": "100000000012",
              "display": "Human use"
            }
          ]
        },
        "status": {
          "coding": [
            {
              "system": "https://spor.ema.europa.eu/v1/lists/200000005003",
              "code": "200000005004",
              "display": "Current"
            }
          ]
        },
        "combinedPharmaceuticalDoseForm": {
          "coding": [
            {
              "system": "https://spor.ema.europa.eu/v1/lists/200000000004",
              "code": "100000073863",
              "display": "Solution for injection"
            }
          ]
        },
        "legalStatusOfSupply": {
          "coding": [
            {
              "system": "https://spor.ema.europa.eu/v1/lists/100000072051",
              "code": "100000072084",
              "display": "Medicinal product subject to medical prescription"
            }
          ]
        },
        "classification": [
          {
            "coding": [
              {
                "system": "https://spor.ema.europa.eu/v1/lists/100000093533",
                "code": "100000094266",
                "display": "Enoxaparin"
              },
              {
                "system": "http://www.whocc.no/atc",
                "code": "B01AB05",
                "display": "Enoxaparin"
              }
            ]
          }
        ],
        "name": [
          {
            "productName": "Clexane, 6000 RÜ (60 mg)/0,6 ml süstelahus süstlis",
            "namePart": [
              {
                "part": "Clexane",
                "type": {
                  "coding": [
                    {
                      "system": "https://spor.ema.europa.eu/v1/lists/220000000000",
                      "code": "220000000002",
                      "display": "Invented name part"
                    }
                  ]
                }
              },
              {
                "part": "6000 RÜ",
                "type": {
                  "coding": [
                    {
                      "system": "https://spor.ema.europa.eu/v1/lists/220000000000",
                      "code": "220000000004",
                      "display": "Strength part"
                    }
                  ]
                }
              },
              {
                "part": "süstelahus süstlis",
                "type": {
                  "coding": [
                    {
                      "system": "https://spor.ema.europa.eu/v1/lists/220000000000",
                      "code": "220000000005",
                      "display": "Pharmaceutical dose form part"
                    }
                  ]
                }
              }
            ],
            "countryLanguage": [
              {
                "country": {
                  "coding": [
                    {
                      "system": "https://spor.ema.europa.eu/v1/lists/100000000002",
                      "code": "100000000388",
                      "display": "Republic of Estonia"
                    }
                  ]
                },
                "language": {
                  "coding": [
                    {
                      "system": "https://spor.ema.europa.eu/v1/lists/100000072057",
                      "code": "100000072172",
                      "display": "Estonian"
                    }
                  ]
                }
              }
            ]
          }
        ]
      },
      "request": {
        "method": "PUT",
        "url": "MedicinalProductDefinition/Clexane-60mg-0.6ml-solinj-EE-MPD"
      }
    },
    {
      "fullUrl": "https://hl7-eu.github.io/unicom-ig/branches/mpd-r4b/RegulatedAuthorization/Clexane-60mg-0.6ml-solinj-EE-RA",
      "resource": {
        "resourceType": "RegulatedAuthorization",
        "id": "Clexane-60mg-0.6ml-solinj-EE-RA",
        "meta": {
          "profile": [
            "http://unicom-project.eu/fhir/StructureDefinition/PPLRegulatedAuthorization"
          ]
        },
        "text": {
          "status": "generated",
          "div": "<div xmlns=\"http://www.w3.org/1999/xhtml\"><p><b>Generated Narrative: RegulatedAuthorization</b><a name=\"Clexane-60mg-0.6ml-solinj-EE-RA\"> </a></p><div style=\"display: inline-block; background-color: #d9e0e7; padding: 6px; margin: 4px; border: 1px solid #8da1b4; border-radius: 5px; line-height: 60%\"><p style=\"margin-bottom: 0px\">Resource RegulatedAuthorization &quot;Clexane-60mg-0.6ml-solinj-EE-RA&quot; </p><p style=\"margin-bottom: 0px\">Profile: <a href=\"StructureDefinition-PPLRegulatedAuthorization.html\">PPL Marketing Authorisation profile</a></p></div><p><b>identifier</b>: id: 940517</p><p><b>subject</b>: <a href=\"#MedicinalProductDefinition_Clexane-60mg-0.6ml-solinj-EE-MPD\">See above (MedicinalProductDefinition/Clexane-60mg-0.6ml-solinj-EE-MPD)</a></p><p><b>type</b>: Marketing Authorisation <span style=\"background: LightGoldenRodYellow; margin: 4px; border: 1px solid khaki\"> (220000000060#220000000061)</span></p><p><b>region</b>: Republic of Estonia <span style=\"background: LightGoldenRodYellow; margin: 4px; border: 1px solid khaki\"> (<a href=\"CodeSystem-country-ema-cs.html\">Country EMA</a>#100000000388)</span></p><p><b>status</b>: Valid - Renewed/Varied <span style=\"background: LightGoldenRodYellow; margin: 4px; border: 1px solid khaki\"> (100000072049#200000017708)</span></p><p><b>statusDate</b>: 2022-06-28</p><p><b>holder</b>: <a href=\"#Organization_LOC-100001368-Sanofi-Aventis\">See above (Organization/LOC-100001368-Sanofi-Aventis)</a></p></div>"
        },
        "identifier": [
          {
            "value": "940517"
          }
        ],
        "subject": [
          {
            "reference": "MedicinalProductDefinition/Clexane-60mg-0.6ml-solinj-EE-MPD"
          }
        ],
        "type": {
          "coding": [
            {
              "system": "https://spor.ema.europa.eu/v1/lists/220000000060",
              "code": "220000000061",
              "display": "Marketing Authorisation"
            }
          ]
        },
        "region": [
          {
            "coding": [
              {
                "system": "https://spor.ema.europa.eu/v1/lists/100000000002",
                "code": "100000000388",
                "display": "Republic of Estonia"
              }
            ]
          }
        ],
        "status": {
          "coding": [
            {
              "system": "https://spor.ema.europa.eu/v1/lists/100000072049",
              "code": "200000017708",
              "display": "Valid - Renewed/Varied"
            }
          ]
        },
        "statusDate": "2022-06-28",
        "holder": {
          "reference": "Organization/LOC-100001368-Sanofi-Aventis"
        }
      },
      "request": {
        "method": "PUT",
        "url": "RegulatedAuthorization/Clexane-60mg-0.6ml-solinj-EE-RA"
      }
    },
    {
      "fullUrl": "https://hl7-eu.github.io/unicom-ig/branches/mpd-r4b/Organization/LOC-100001368-Sanofi-Aventis",
      "resource": {
        "resourceType": "Organization",
        "id": "LOC-100001368-Sanofi-Aventis",
        "meta": {
          "profile": [
            "http://unicom-project.eu/fhir/StructureDefinition/PPLOrganization"
          ]
        },
        "text": {
          "status": "generated",
          "div": "<div xmlns=\"http://www.w3.org/1999/xhtml\"><p><b>Generated Narrative: Organization</b><a name=\"LOC-100001368-Sanofi-Aventis\"> </a></p><div style=\"display: inline-block; background-color: #d9e0e7; padding: 6px; margin: 4px; border: 1px solid #8da1b4; border-radius: 5px; line-height: 60%\"><p style=\"margin-bottom: 0px\">Resource Organization &quot;LOC-100001368-Sanofi-Aventis&quot; </p><p style=\"margin-bottom: 0px\">Profile: <a href=\"StructureDefinition-PPLOrganization.html\">PPL Organization</a></p></div><p><b>identifier</b>: id: LOC-100001368</p><p><b>name</b>: Sanofi-Aventis Groupe</p></div>"
        },
        "identifier": [
          {
            "system": "https://spor.ema.europa.eu/v1/locations",
            "value": "LOC-100001368"
          }
        ],
        "name": "Sanofi-Aventis Groupe"
      },
      "request": {
        "method": "PUT",
        "url": "Organization/LOC-100001368-Sanofi-Aventis"
      }
    },
    {
      "fullUrl": "https://hl7-eu.github.io/unicom-ig/branches/mpd-r4b/AdministrableProductDefinition/Clexane-60mg-0.6ml-solinj-EE-APD",
      "resource": {
        "resourceType": "AdministrableProductDefinition",
        "id": "Clexane-60mg-0.6ml-solinj-EE-APD",
        "meta": {
          "profile": [
            "http://unicom-project.eu/fhir/StructureDefinition/PPLAdministrableProductDefinition"
          ]
        },
        "text": {
          "status": "generated",
          "div": "<div xmlns=\"http://www.w3.org/1999/xhtml\"><p><b>Generated Narrative: AdministrableProductDefinition</b><a name=\"Clexane-60mg-0.6ml-solinj-EE-APD\"> </a></p><div style=\"display: inline-block; background-color: #d9e0e7; padding: 6px; margin: 4px; border: 1px solid #8da1b4; border-radius: 5px; line-height: 60%\"><p style=\"margin-bottom: 0px\">Resource AdministrableProductDefinition &quot;Clexane-60mg-0.6ml-solinj-EE-APD&quot; </p><p style=\"margin-bottom: 0px\">Profile: <a href=\"StructureDefinition-PPLAdministrableProductDefinition.html\">PPL Administrable Product profile</a></p></div><p><b>status</b>: active</p><p><b>formOf</b>: <a href=\"#MedicinalProductDefinition_Clexane-60mg-0.6ml-solinj-EE-MPD\">See above (MedicinalProductDefinition/Clexane-60mg-0.6ml-solinj-EE-MPD)</a></p><p><b>administrableDoseForm</b>: Solution for injection <span style=\"background: LightGoldenRodYellow; margin: 4px; border: 1px solid khaki\"> (<a href=\"CodeSystem-pharmaceutical-dose-form-ema-cs.html\">Pharmaceutical Dose Form EMA</a>#100000073863)</span></p><p><b>unitOfPresentation</b>: Syringe <span style=\"background: LightGoldenRodYellow; margin: 4px; border: 1px solid khaki\"> (<a href=\"CodeSystem-unit-of-presentation-ema-cs.html\">Unit of Presentation EMA</a>#200000002150)</span></p><p><b>producedFrom</b>: <a href=\"#ManufacturedItemDefinition_Clexane-60mg-0.6ml-solinj-EE-MID\">See above (ManufacturedItemDefinition/Clexane-60mg-0.6ml-solinj-EE-MID)</a></p><h3>RouteOfAdministrations</h3><table class=\"grid\"><tr><td>-</td><td><b>Code</b></td></tr><tr><td>*</td><td>Subcutaneous use <span style=\"background: LightGoldenRodYellow; margin: 4px; border: 1px solid khaki\"> (<a href=\"CodeSystem-routes-and-methods-of-administration-ema-cs.html\">Routes and Methods of Administration EMA</a>#100000073633)</span></td></tr></table></div>"
        },
        "status": "active",
        "formOf": [
          {
            "reference": "MedicinalProductDefinition/Clexane-60mg-0.6ml-solinj-EE-MPD"
          }
        ],
        "administrableDoseForm": {
          "coding": [
            {
              "system": "https://spor.ema.europa.eu/v1/lists/200000000004",
              "code": "100000073863",
              "display": "Solution for injection"
            }
          ]
        },
        "unitOfPresentation": {
          "coding": [
            {
              "system": "https://spor.ema.europa.eu/v1/lists/200000000014",
              "code": "200000002150",
              "display": "Syringe"
            }
          ]
        },
        "producedFrom": [
          {
            "reference": "ManufacturedItemDefinition/Clexane-60mg-0.6ml-solinj-EE-MID"
          }
        ],
        "routeOfAdministration": [
          {
            "code": {
              "coding": [
                {
                  "system": "https://spor.ema.europa.eu/v1/lists/100000073345",
                  "code": "100000073633",
                  "display": "Subcutaneous use"
                }
              ]
            }
          }
        ]
      },
      "request": {
        "method": "PUT",
        "url": "AdministrableProductDefinition/Clexane-60mg-0.6ml-solinj-EE-APD"
      }
    },
    {
      "fullUrl": "https://hl7-eu.github.io/unicom-ig/branches/mpd-r4b/ManufacturedItemDefinition/Clexane-60mg-0.6ml-solinj-EE-MID",
      "resource": {
        "resourceType": "ManufacturedItemDefinition",
        "id": "Clexane-60mg-0.6ml-solinj-EE-MID",
        "meta": {
          "profile": [
            "http://unicom-project.eu/fhir/StructureDefinition/PPLManufacturedItemDefinition"
          ]
        },
        "text": {
          "status": "generated",
          "div": "<div xmlns=\"http://www.w3.org/1999/xhtml\"><p><b>Generated Narrative: ManufacturedItemDefinition</b><a name=\"Clexane-60mg-0.6ml-solinj-EE-MID\"> </a></p><div style=\"display: inline-block; background-color: #d9e0e7; padding: 6px; margin: 4px; border: 1px solid #8da1b4; border-radius: 5px; line-height: 60%\"><p style=\"margin-bottom: 0px\">Resource ManufacturedItemDefinition &quot;Clexane-60mg-0.6ml-solinj-EE-MID&quot; </p><p style=\"margin-bottom: 0px\">Profile: <a href=\"StructureDefinition-PPLManufacturedItemDefinition.html\">PPL Manufactured Item profile</a></p></div><p><b>status</b>: active</p><p><b>manufacturedDoseForm</b>: Solution for injection <span style=\"background: LightGoldenRodYellow; margin: 4px; border: 1px solid khaki\"> (<a href=\"CodeSystem-pharmaceutical-dose-form-ema-cs.html\">Pharmaceutical Dose Form EMA</a>#100000073863)</span></p><p><b>unitOfPresentation</b>: Syringe <span style=\"background: LightGoldenRodYellow; margin: 4px; border: 1px solid khaki\"> (<a href=\"CodeSystem-unit-of-presentation-ema-cs.html\">Unit of Presentation EMA</a>#200000002150)</span></p></div>"
        },
        "status": "active",
        "manufacturedDoseForm": {
          "coding": [
            {
              "system": "https://spor.ema.europa.eu/v1/lists/200000000004",
              "code": "100000073863",
              "display": "Solution for injection"
            }
          ]
        },
        "unitOfPresentation": {
          "coding": [
            {
              "system": "https://spor.ema.europa.eu/v1/lists/200000000014",
              "code": "200000002150",
              "display": "Syringe"
            }
          ]
        }
      },
      "request": {
        "method": "PUT",
        "url": "ManufacturedItemDefinition/Clexane-60mg-0.6ml-solinj-EE-MID"
      }
    },
    {
      "fullUrl": "https://hl7-eu.github.io/unicom-ig/branches/mpd-r4b/Ingredient/Clexane-60mg-0.6ml-solinj-EE-I",
      "resource": {
        "resourceType": "Ingredient",
        "id": "Clexane-60mg-0.6ml-solinj-EE-I",
        "meta": {
          "profile": [
            "http://unicom-project.eu/fhir/StructureDefinition/PPLIngredient"
          ]
        },
        "text": {
          "status": "generated",
          "div": "<div xmlns=\"http://www.w3.org/1999/xhtml\"><p><b>Generated Narrative: Ingredient</b><a name=\"Clexane-60mg-0.6ml-solinj-EE-I\"> </a></p><div style=\"display: inline-block; background-color: #d9e0e7; padding: 6px; margin: 4px; border: 1px solid #8da1b4; border-radius: 5px; line-height: 60%\"><p style=\"margin-bottom: 0px\">Resource Ingredient &quot;Clexane-60mg-0.6ml-solinj-EE-I&quot; </p><p style=\"margin-bottom: 0px\">Profile: <a href=\"StructureDefinition-PPLIngredient.html\">PPL Ingredient profile</a></p></div><p><b>status</b>: active</p><p><b>for</b>: </p><ul><li><a href=\"#MedicinalProductDefinition_Clexane-60mg-0.6ml-solinj-EE-MPD\">See above (MedicinalProductDefinition/Clexane-60mg-0.6ml-solinj-EE-MPD)</a></li><li><a href=\"#ManufacturedItemDefinition_Clexane-60mg-0.6ml-solinj-EE-MID\">See above (ManufacturedItemDefinition/Clexane-60mg-0.6ml-solinj-EE-MID)</a></li><li><a href=\"#AdministrableProductDefinition_Clexane-60mg-0.6ml-solinj-EE-APD\">See above (AdministrableProductDefinition/Clexane-60mg-0.6ml-solinj-EE-APD)</a></li></ul><p><b>role</b>: Active <span style=\"background: LightGoldenRodYellow; margin: 4px; border: 1px solid khaki\"> (100000072050#100000072072)</span></p><blockquote><p><b>substance</b></p><h3>Codes</h3><table class=\"grid\"><tr><td>-</td><td><b>Concept</b></td></tr><tr><td>*</td><td>Enoxaparin sodium <span style=\"background: LightGoldenRodYellow; margin: 4px; border: 1px solid khaki\"> (SubstanceDefinition#100000090152)</span></td></tr></table><h3>Strengths</h3><table class=\"grid\"><tr><td>-</td><td><b>Concentration[x]</b></td></tr><tr><td>*</td><td>60 milligram(s)<span style=\"background: LightGoldenRodYellow\"> (Details: https://spor.ema.europa.eu/v1/lists/100000110633 code 100000110655 = 'milligram(s)')</span>/0.6 millilitre(s)<span style=\"background: LightGoldenRodYellow\"> (Details: https://spor.ema.europa.eu/v1/lists/100000110633 code 100000110662 = 'millilitre(s)')</span></td></tr></table></blockquote></div>"
        },
        "status": "active",
        "for": [
          {
            "reference": "MedicinalProductDefinition/Clexane-60mg-0.6ml-solinj-EE-MPD"
          },
          {
            "reference": "ManufacturedItemDefinition/Clexane-60mg-0.6ml-solinj-EE-MID"
          },
          {
            "reference": "AdministrableProductDefinition/Clexane-60mg-0.6ml-solinj-EE-APD"
          }
        ],
        "role": {
          "coding": [
            {
              "system": "https://spor.ema.europa.eu/v1/lists/100000072050",
              "code": "100000072072",
              "display": "Active"
            }
          ]
        },
        "substance": {
          "code": {
            "concept": {
              "coding": [
                {
                  "system": "https://spor.ema.europa.eu/v2/SubstanceDefinition",
                  "code": "100000090152",
                  "display": "Enoxaparin sodium"
                }
              ]
            }
          },
          "strength": [
            {
              "concentrationRatio": {
                "numerator": {
                  "value": 60,
                  "unit": "milligram(s)",
                  "system": "https://spor.ema.europa.eu/v1/lists/100000110633",
                  "code": "100000110655"
                },
                "denominator": {
                  "value": 0.6,
                  "unit": "millilitre(s)",
                  "system": "https://spor.ema.europa.eu/v1/lists/100000110633",
                  "code": "100000110662"
                }
              }
            }
          ]
        }
      },
      "request": {
        "method": "PUT",
        "url": "Ingredient/Clexane-60mg-0.6ml-solinj-EE-I"
      }
    },
    {
      "fullUrl": "https://hl7-eu.github.io/unicom-ig/branches/mpd-r4b/PackagedProductDefinition/Clexane-60mg-0.6ml-solinj-EE-PPD-1065552",
      "resource": {
        "resourceType": "PackagedProductDefinition",
        "id": "Clexane-60mg-0.6ml-solinj-EE-PPD-1065552",
        "meta": {
          "profile": [
            "http://unicom-project.eu/fhir/StructureDefinition/PPLPackagedProductDefinition"
          ]
        },
        "text": {
          "status": "generated",
          "div": "<div xmlns=\"http://www.w3.org/1999/xhtml\"><p><b>Generated Narrative: PackagedProductDefinition</b><a name=\"Clexane-60mg-0.6ml-solinj-EE-PPD-1065552\"> </a></p><div style=\"display: inline-block; background-color: #d9e0e7; padding: 6px; margin: 4px; border: 1px solid #8da1b4; border-radius: 5px; line-height: 60%\"><p style=\"margin-bottom: 0px\">Resource PackagedProductDefinition &quot;Clexane-60mg-0.6ml-solinj-EE-PPD-1065552&quot; </p><p style=\"margin-bottom: 0px\">Profile: <a href=\"StructureDefinition-PPLPackagedProductDefinition.html\">PPL Packaged Product profile</a></p></div><p><b>identifier</b>: id: EE-100001368-34217-1065552</p><p><b>packageFor</b>: <a href=\"#MedicinalProductDefinition_Clexane-60mg-0.6ml-solinj-EE-MPD\">See above (MedicinalProductDefinition/Clexane-60mg-0.6ml-solinj-EE-MPD)</a></p><p><b>containedItemQuantity</b>: 2 Syringe<span style=\"background: LightGoldenRodYellow\"> (Details: https://spor.ema.europa.eu/v1/lists/200000000014 code 200000002150 = 'Syringe')</span></p><p><b>description</b>: CLEXANE 6000 RÜ (60 mg)/0,6 ml: süstelahus süstlites (I tüüpi klaas), mis on varustatud kummikorgiga (klorobutüül ja bromobutüül) ning süstimisnõelaga (automaatse ohutussüsteemiga ERIS või PREVENTIS või ilma). </p><h3>MarketingStatuses</h3><table class=\"grid\"><tr><td>-</td><td><b>Country</b></td><td><b>Status</b></td></tr><tr><td>*</td><td>Republic of Estonia <span style=\"background: LightGoldenRodYellow; margin: 4px; border: 1px solid khaki\"> (<a href=\"CodeSystem-country-ema-cs.html\">Country EMA</a>#100000000388)</span></td><td>Marketed <span style=\"background: LightGoldenRodYellow; margin: 4px; border: 1px solid khaki\"> (100000072052#100000072083)</span></td></tr></table><blockquote><p><b>package</b></p><p><b>type</b>: Box <span style=\"background: LightGoldenRodYellow; margin: 4px; border: 1px solid khaki\"> (100000073346#100000073498)</span></p><p><b>quantity</b>: 1</p><p><b>material</b>: Cardboard <span style=\"background: LightGoldenRodYellow; margin: 4px; border: 1px solid khaki\"> (<a href=\"CodeSystem-material-ema-cs.html\">Material EMA</a>#200000003529)</span></p><blockquote><p><b>package</b></p><p><b>type</b>: Pre-filled syringe <span style=\"background: LightGoldenRodYellow; margin: 4px; border: 1px solid khaki\"> (100000073346#100000073544)</span></p><p><b>quantity</b>: 2</p><p><b>material</b>: Glass type I <span style=\"background: LightGoldenRodYellow; margin: 4px; border: 1px solid khaki\"> (<a href=\"CodeSystem-material-ema-cs.html\">Material EMA</a>#200000003204)</span></p></blockquote></blockquote></div>"
        },
        "identifier": [
          {
            "system": "http://ema.europa.eu/example/pcid",
            "value": "EE-100001368-34217-1065552"
          }
        ],
        "packageFor": [
          {
            "reference": "MedicinalProductDefinition/Clexane-60mg-0.6ml-solinj-EE-MPD"
          }
        ],
        "containedItemQuantity": [
          {
            "value": 2,
            "unit": "Syringe",
            "system": "https://spor.ema.europa.eu/v1/lists/200000000014",
            "code": "200000002150"
          }
        ],
        "description": "CLEXANE 6000 RÜ (60 mg)/0,6 ml: süstelahus süstlites (I tüüpi klaas), mis on varustatud kummikorgiga (klorobutüül ja bromobutüül) ning süstimisnõelaga (automaatse ohutussüsteemiga ERIS või PREVENTIS või ilma). ",
        "marketingStatus": [
          {
            "country": {
              "coding": [
                {
                  "system": "https://spor.ema.europa.eu/v1/lists/100000000002",
                  "code": "100000000388",
                  "display": "Republic of Estonia"
                }
              ]
            },
            "status": {
              "coding": [
                {
                  "system": "https://spor.ema.europa.eu/v1/lists/100000072052",
                  "code": "100000072083",
                  "display": "Marketed"
                }
              ]
            }
          }
        ],
        "package": {
          "type": {
            "coding": [
              {
                "system": "https://spor.ema.europa.eu/v1/lists/100000073346",
                "code": "100000073498",
                "display": "Box"
              }
            ]
          },
          "quantity": 1,
          "material": [
            {
              "coding": [
                {
                  "system": "https://spor.ema.europa.eu/v1/lists/200000003199",
                  "code": "200000003529",
                  "display": "Cardboard"
                }
              ]
            }
          ],
          "package": [
            {
              "type": {
                "coding": [
                  {
                    "system": "https://spor.ema.europa.eu/v1/lists/100000073346",
                    "code": "100000073544",
                    "display": "Pre-filled syringe"
                  }
                ]
              },
              "quantity": 2,
              "material": [
                {
                  "coding": [
                    {
                      "system": "https://spor.ema.europa.eu/v1/lists/200000003199",
                      "code": "200000003204",
                      "display": "Glass type I"
                    }
                  ]
                }
              ],
              "containedItem": [
                {
                  "item": {
                    "reference": {
                      "reference": "ManufacturedItemDefinition/Clexane-60mg-0.6ml-solinj-EE-MID"
                    }
                  },
                  "amount": {
                    "value": 0.6,
                    "unit": "millilitre(s)",
                    "system": "https://spor.ema.europa.eu/v1/lists/100000110633",
                    "code": "100000110662"
                  }
                }
              ]
            }
          ]
        }
      },
      "request": {
        "method": "PUT",
        "url": "PackagedProductDefinition/Clexane-60mg-0.6ml-solinj-EE-PPD-1065552"
      }
    }
  ]
}