<?xml version="1.0" encoding="UTF-8"?>

<Bundle xmlns="http://hl7.org/fhir">
  <id value="008-Clexane-60mg-0.6ml-EE-FullProduct"/>
  <type value="transaction"/>
  <entry>
    <fullUrl value="https://hl7-eu.github.io/unicom-ig/branches/mpd-r4b/MedicinalProductDefinition/Clexane-60mg-0.6ml-solinj-EE-MPD"/>
    <resource>
      <MedicinalProductDefinition>
        <id value="Clexane-60mg-0.6ml-solinj-EE-MPD"/>
        <meta>
          <profile value="http://unicom-project.eu/fhir/StructureDefinition/PPLMedicinalProductDefinition"/>
        </meta>
        <text>
          <status value="generated"/><div xmlns="http://www.w3.org/1999/xhtml"><p><b>Generated Narrative: MedicinalProductDefinition</b><a name="Clexane-60mg-0.6ml-solinj-EE-MPD"> </a></p><div style="display: inline-block; background-color: #d9e0e7; padding: 6px; margin: 4px; border: 1px solid #8da1b4; border-radius: 5px; line-height: 60%"><p style="margin-bottom: 0px">Resource MedicinalProductDefinition &quot;Clexane-60mg-0.6ml-solinj-EE-MPD&quot; </p><p style="margin-bottom: 0px">Profile: <a href="StructureDefinition-PPLMedicinalProductDefinition.html">PPL Medicinal Product profile</a></p></div><p><b>identifier</b>: id: EE-100001368-34217</p><p><b>domain</b>: Human use <span style="background: LightGoldenRodYellow; margin: 4px; border: 1px solid khaki"> (<a href="CodeSystem-domain-ema-cs.html">Domain EMA</a>#100000000012)</span></p><p><b>status</b>: Current <span style="background: LightGoldenRodYellow; margin: 4px; border: 1px solid khaki"> (200000005003#200000005004)</span></p><p><b>combinedPharmaceuticalDoseForm</b>: Solution for injection <span style="background: LightGoldenRodYellow; margin: 4px; border: 1px solid khaki"> (<a href="CodeSystem-pharmaceutical-dose-form-ema-cs.html">Pharmaceutical Dose Form EMA</a>#100000073863)</span></p><p><b>legalStatusOfSupply</b>: Medicinal product subject to medical prescription <span style="background: LightGoldenRodYellow; margin: 4px; border: 1px solid khaki"> (<a href="CodeSystem-legal-status-for-the-supply-ema-cs.html">Legal Status for the Supply EMA</a>#100000072084)</span></p><p><b>classification</b>: Enoxaparin <span style="background: LightGoldenRodYellow; margin: 4px; border: 1px solid khaki"> (100000093533#100000094266; <a href="http://terminology.hl7.org/4.0.0/CodeSystem-v3-WC.html">WHO ATC</a>#B01AB05)</span></p><blockquote><p><b>name</b></p><p><b>productName</b>: Clexane, 6000 RÜ (60 mg)/0,6 ml süstelahus süstlis</p><blockquote><p><b>namePart</b></p><p><b>part</b>: Clexane</p><p><b>type</b>: Invented name part <span style="background: LightGoldenRodYellow; margin: 4px; border: 1px solid khaki"> (220000000000#220000000002)</span></p></blockquote><blockquote><p><b>namePart</b></p><p><b>part</b>: 6000 RÜ</p><p><b>type</b>: Strength part <span style="background: LightGoldenRodYellow; margin: 4px; border: 1px solid khaki"> (220000000000#220000000004)</span></p></blockquote><blockquote><p><b>namePart</b></p><p><b>part</b>: süstelahus süstlis</p><p><b>type</b>: Pharmaceutical dose form part <span style="background: LightGoldenRodYellow; margin: 4px; border: 1px solid khaki"> (220000000000#220000000005)</span></p></blockquote><h3>CountryLanguages</h3><table class="grid"><tr><td>-</td><td><b>Country</b></td><td><b>Language</b></td></tr><tr><td>*</td><td>Republic of Estonia <span style="background: LightGoldenRodYellow; margin: 4px; border: 1px solid khaki"> (<a href="CodeSystem-country-ema-cs.html">Country EMA</a>#100000000388)</span></td><td>Estonian <span style="background: LightGoldenRodYellow; margin: 4px; border: 1px solid khaki"> (<a href="CodeSystem-language-ema-cs.html">Language EMA</a>#100000072172)</span></td></tr></table></blockquote></div>
        </text>
        <identifier>
          <system value="http://ema.europa.eu/fhir/mpId"/>
          <value value="EE-100001368-34217"/>
        </identifier>
        <domain>
          <coding>
            <system value="https://spor.ema.europa.eu/v1/lists/100000000004"/>
            <code value="100000000012"/>
            <display value="Human use"/>
          </coding>
        </domain>
        <status>
          <coding>
            <system value="https://spor.ema.europa.eu/v1/lists/200000005003"/>
            <code value="200000005004"/>
            <display value="Current"/>
          </coding>
        </status>
        <combinedPharmaceuticalDoseForm>
          <coding>
            <system value="https://spor.ema.europa.eu/v1/lists/200000000004"/>
            <code value="100000073863"/>
            <display value="Solution for injection"/>
          </coding>
        </combinedPharmaceuticalDoseForm>
        <legalStatusOfSupply>
          <coding>
            <system value="https://spor.ema.europa.eu/v1/lists/100000072051"/>
            <code value="100000072084"/>
            <display value="Medicinal product subject to medical prescription"/>
          </coding>
        </legalStatusOfSupply>
        <classification>
          <coding>
            <system value="https://spor.ema.europa.eu/v1/lists/100000093533"/>
            <code value="100000094266"/>
            <display value="Enoxaparin"/>
          </coding>
          <coding>
            <system value="http://www.whocc.no/atc"/>
            <code value="B01AB05"/>
            <display value="Enoxaparin"/>
          </coding>
        </classification>
        <name>
          <productName value="Clexane, 6000 RÜ (60 mg)/0,6 ml süstelahus süstlis"/>
          <namePart>
            <part value="Clexane"/>
            <type>
              <coding>
                <system value="https://spor.ema.europa.eu/v1/lists/220000000000"/>
                <code value="220000000002"/>
                <display value="Invented name part"/>
              </coding>
            </type>
          </namePart>
          <namePart>
            <part value="6000 RÜ"/>
            <type>
              <coding>
                <system value="https://spor.ema.europa.eu/v1/lists/220000000000"/>
                <code value="220000000004"/>
                <display value="Strength part"/>
              </coding>
            </type>
          </namePart>
          <namePart>
            <part value="süstelahus süstlis"/>
            <type>
              <coding>
                <system value="https://spor.ema.europa.eu/v1/lists/220000000000"/>
                <code value="220000000005"/>
                <display value="Pharmaceutical dose form part"/>
              </coding>
            </type>
          </namePart>
          <countryLanguage>
            <country>
              <coding>
                <system value="https://spor.ema.europa.eu/v1/lists/100000000002"/>
                <code value="100000000388"/>
                <display value="Republic of Estonia"/>
              </coding>
            </country>
            <language>
              <coding>
                <system value="https://spor.ema.europa.eu/v1/lists/100000072057"/>
                <code value="100000072172"/>
                <display value="Estonian"/>
              </coding>
            </language>
          </countryLanguage>
        </name>
      </MedicinalProductDefinition>
    </resource>
    <request>
      <method value="PUT"/>
      <url value="MedicinalProductDefinition/Clexane-60mg-0.6ml-solinj-EE-MPD"/>
    </request>
  </entry>
  <entry>
    <fullUrl value="https://hl7-eu.github.io/unicom-ig/branches/mpd-r4b/RegulatedAuthorization/Clexane-60mg-0.6ml-solinj-EE-RA"/>
    <resource>
      <RegulatedAuthorization>
        <id value="Clexane-60mg-0.6ml-solinj-EE-RA"/>
        <meta>
          <profile value="http://unicom-project.eu/fhir/StructureDefinition/PPLRegulatedAuthorization"/>
        </meta>
        <text>
          <status value="generated"/><div xmlns="http://www.w3.org/1999/xhtml"><p><b>Generated Narrative: RegulatedAuthorization</b><a name="Clexane-60mg-0.6ml-solinj-EE-RA"> </a></p><div style="display: inline-block; background-color: #d9e0e7; padding: 6px; margin: 4px; border: 1px solid #8da1b4; border-radius: 5px; line-height: 60%"><p style="margin-bottom: 0px">Resource RegulatedAuthorization &quot;Clexane-60mg-0.6ml-solinj-EE-RA&quot; </p><p style="margin-bottom: 0px">Profile: <a href="StructureDefinition-PPLRegulatedAuthorization.html">PPL Marketing Authorisation profile</a></p></div><p><b>identifier</b>: id: 940517</p><p><b>subject</b>: <a href="#MedicinalProductDefinition_Clexane-60mg-0.6ml-solinj-EE-MPD">See above (MedicinalProductDefinition/Clexane-60mg-0.6ml-solinj-EE-MPD)</a></p><p><b>type</b>: Marketing Authorisation <span style="background: LightGoldenRodYellow; margin: 4px; border: 1px solid khaki"> (220000000060#220000000061)</span></p><p><b>region</b>: Republic of Estonia <span style="background: LightGoldenRodYellow; margin: 4px; border: 1px solid khaki"> (<a href="CodeSystem-country-ema-cs.html">Country EMA</a>#100000000388)</span></p><p><b>status</b>: Valid - Renewed/Varied <span style="background: LightGoldenRodYellow; margin: 4px; border: 1px solid khaki"> (100000072049#200000017708)</span></p><p><b>statusDate</b>: 2022-06-28</p><p><b>holder</b>: <a href="#Organization_LOC-100001368-Sanofi-Aventis">See above (Organization/LOC-100001368-Sanofi-Aventis)</a></p></div>
        </text>
        <identifier>
          <value value="940517"/>
        </identifier>
        <subject>
          <reference value="MedicinalProductDefinition/Clexane-60mg-0.6ml-solinj-EE-MPD"/>
        </subject>
        <type>
          <coding>
            <system value="https://spor.ema.europa.eu/v1/lists/220000000060"/>
            <code value="220000000061"/>
            <display value="Marketing Authorisation"/>
          </coding>
        </type>
        <region>
          <coding>
            <system value="https://spor.ema.europa.eu/v1/lists/100000000002"/>
            <code value="100000000388"/>
            <display value="Republic of Estonia"/>
          </coding>
        </region>
        <status>
          <coding>
            <system value="https://spor.ema.europa.eu/v1/lists/100000072049"/>
            <code value="200000017708"/>
            <display value="Valid - Renewed/Varied"/>
          </coding>
        </status>
        <statusDate value="2022-06-28"/>
        <holder>
          <reference value="Organization/LOC-100001368-Sanofi-Aventis"/>
        </holder>
      </RegulatedAuthorization>
    </resource>
    <request>
      <method value="PUT"/>
      <url value="RegulatedAuthorization/Clexane-60mg-0.6ml-solinj-EE-RA"/>
    </request>
  </entry>
  <entry>
    <fullUrl value="https://hl7-eu.github.io/unicom-ig/branches/mpd-r4b/Organization/LOC-100001368-Sanofi-Aventis"/>
    <resource>
      <Organization>
        <id value="LOC-100001368-Sanofi-Aventis"/>
        <meta>
          <profile value="http://unicom-project.eu/fhir/StructureDefinition/PPLOrganization"/>
        </meta>
        <text>
          <status value="generated"/><div xmlns="http://www.w3.org/1999/xhtml"><p><b>Generated Narrative: Organization</b><a name="LOC-100001368-Sanofi-Aventis"> </a></p><div style="display: inline-block; background-color: #d9e0e7; padding: 6px; margin: 4px; border: 1px solid #8da1b4; border-radius: 5px; line-height: 60%"><p style="margin-bottom: 0px">Resource Organization &quot;LOC-100001368-Sanofi-Aventis&quot; </p><p style="margin-bottom: 0px">Profile: <a href="StructureDefinition-PPLOrganization.html">PPL Organization</a></p></div><p><b>identifier</b>: id: LOC-100001368</p><p><b>name</b>: Sanofi-Aventis Groupe</p></div>
        </text>
        <identifier>
          <system value="https://spor.ema.europa.eu/v1/locations"/>
          <value value="LOC-100001368"/>
        </identifier>
        <name value="Sanofi-Aventis Groupe"/>
      </Organization>
    </resource>
    <request>
      <method value="PUT"/>
      <url value="Organization/LOC-100001368-Sanofi-Aventis"/>
    </request>
  </entry>
  <entry>
    <fullUrl value="https://hl7-eu.github.io/unicom-ig/branches/mpd-r4b/AdministrableProductDefinition/Clexane-60mg-0.6ml-solinj-EE-APD"/>
    <resource>
      <AdministrableProductDefinition>
        <id value="Clexane-60mg-0.6ml-solinj-EE-APD"/>
        <meta>
          <profile value="http://unicom-project.eu/fhir/StructureDefinition/PPLAdministrableProductDefinition"/>
        </meta>
        <text>
          <status value="generated"/><div xmlns="http://www.w3.org/1999/xhtml"><p><b>Generated Narrative: AdministrableProductDefinition</b><a name="Clexane-60mg-0.6ml-solinj-EE-APD"> </a></p><div style="display: inline-block; background-color: #d9e0e7; padding: 6px; margin: 4px; border: 1px solid #8da1b4; border-radius: 5px; line-height: 60%"><p style="margin-bottom: 0px">Resource AdministrableProductDefinition &quot;Clexane-60mg-0.6ml-solinj-EE-APD&quot; </p><p style="margin-bottom: 0px">Profile: <a href="StructureDefinition-PPLAdministrableProductDefinition.html">PPL Administrable Product profile</a></p></div><p><b>status</b>: active</p><p><b>formOf</b>: <a href="#MedicinalProductDefinition_Clexane-60mg-0.6ml-solinj-EE-MPD">See above (MedicinalProductDefinition/Clexane-60mg-0.6ml-solinj-EE-MPD)</a></p><p><b>administrableDoseForm</b>: Solution for injection <span style="background: LightGoldenRodYellow; margin: 4px; border: 1px solid khaki"> (<a href="CodeSystem-pharmaceutical-dose-form-ema-cs.html">Pharmaceutical Dose Form EMA</a>#100000073863)</span></p><p><b>unitOfPresentation</b>: Syringe <span style="background: LightGoldenRodYellow; margin: 4px; border: 1px solid khaki"> (<a href="CodeSystem-unit-of-presentation-ema-cs.html">Unit of Presentation EMA</a>#200000002150)</span></p><p><b>producedFrom</b>: <a href="#ManufacturedItemDefinition_Clexane-60mg-0.6ml-solinj-EE-MID">See above (ManufacturedItemDefinition/Clexane-60mg-0.6ml-solinj-EE-MID)</a></p><h3>RouteOfAdministrations</h3><table class="grid"><tr><td>-</td><td><b>Code</b></td></tr><tr><td>*</td><td>Subcutaneous use <span style="background: LightGoldenRodYellow; margin: 4px; border: 1px solid khaki"> (<a href="CodeSystem-routes-and-methods-of-administration-ema-cs.html">Routes and Methods of Administration EMA</a>#100000073633)</span></td></tr></table></div>
        </text>
        <status value="active"/>
        <formOf>
          <reference value="MedicinalProductDefinition/Clexane-60mg-0.6ml-solinj-EE-MPD"/>
        </formOf>
        <administrableDoseForm>
          <coding>
            <system value="https://spor.ema.europa.eu/v1/lists/200000000004"/>
            <code value="100000073863"/>
            <display value="Solution for injection"/>
          </coding>
        </administrableDoseForm>
        <unitOfPresentation>
          <coding>
            <system value="https://spor.ema.europa.eu/v1/lists/200000000014"/>
            <code value="200000002150"/>
            <display value="Syringe"/>
          </coding>
        </unitOfPresentation>
        <producedFrom>
          <reference value="ManufacturedItemDefinition/Clexane-60mg-0.6ml-solinj-EE-MID"/>
        </producedFrom>
        <routeOfAdministration>
          <code>
            <coding>
              <system value="https://spor.ema.europa.eu/v1/lists/100000073345"/>
              <code value="100000073633"/>
              <display value="Subcutaneous use"/>
            </coding>
          </code>
        </routeOfAdministration>
      </AdministrableProductDefinition>
    </resource>
    <request>
      <method value="PUT"/>
      <url value="AdministrableProductDefinition/Clexane-60mg-0.6ml-solinj-EE-APD"/>
    </request>
  </entry>
  <entry>
    <fullUrl value="https://hl7-eu.github.io/unicom-ig/branches/mpd-r4b/ManufacturedItemDefinition/Clexane-60mg-0.6ml-solinj-EE-MID"/>
    <resource>
      <ManufacturedItemDefinition>
        <id value="Clexane-60mg-0.6ml-solinj-EE-MID"/>
        <meta>
          <profile value="http://unicom-project.eu/fhir/StructureDefinition/PPLManufacturedItemDefinition"/>
        </meta>
        <text>
          <status value="generated"/><div xmlns="http://www.w3.org/1999/xhtml"><p><b>Generated Narrative: ManufacturedItemDefinition</b><a name="Clexane-60mg-0.6ml-solinj-EE-MID"> </a></p><div style="display: inline-block; background-color: #d9e0e7; padding: 6px; margin: 4px; border: 1px solid #8da1b4; border-radius: 5px; line-height: 60%"><p style="margin-bottom: 0px">Resource ManufacturedItemDefinition &quot;Clexane-60mg-0.6ml-solinj-EE-MID&quot; </p><p style="margin-bottom: 0px">Profile: <a href="StructureDefinition-PPLManufacturedItemDefinition.html">PPL Manufactured Item profile</a></p></div><p><b>status</b>: active</p><p><b>manufacturedDoseForm</b>: Solution for injection <span style="background: LightGoldenRodYellow; margin: 4px; border: 1px solid khaki"> (<a href="CodeSystem-pharmaceutical-dose-form-ema-cs.html">Pharmaceutical Dose Form EMA</a>#100000073863)</span></p><p><b>unitOfPresentation</b>: Syringe <span style="background: LightGoldenRodYellow; margin: 4px; border: 1px solid khaki"> (<a href="CodeSystem-unit-of-presentation-ema-cs.html">Unit of Presentation EMA</a>#200000002150)</span></p></div>
        </text>
        <status value="active"/>
        <manufacturedDoseForm>
          <coding>
            <system value="https://spor.ema.europa.eu/v1/lists/200000000004"/>
            <code value="100000073863"/>
            <display value="Solution for injection"/>
          </coding>
        </manufacturedDoseForm>
        <unitOfPresentation>
          <coding>
            <system value="https://spor.ema.europa.eu/v1/lists/200000000014"/>
            <code value="200000002150"/>
            <display value="Syringe"/>
          </coding>
        </unitOfPresentation>
      </ManufacturedItemDefinition>
    </resource>
    <request>
      <method value="PUT"/>
      <url value="ManufacturedItemDefinition/Clexane-60mg-0.6ml-solinj-EE-MID"/>
    </request>
  </entry>
  <entry>
    <fullUrl value="https://hl7-eu.github.io/unicom-ig/branches/mpd-r4b/Ingredient/Clexane-60mg-0.6ml-solinj-EE-I"/>
    <resource>
      <Ingredient>
        <id value="Clexane-60mg-0.6ml-solinj-EE-I"/>
        <meta>
          <profile value="http://unicom-project.eu/fhir/StructureDefinition/PPLIngredient"/>
        </meta>
        <text>
          <status value="generated"/><div xmlns="http://www.w3.org/1999/xhtml"><p><b>Generated Narrative: Ingredient</b><a name="Clexane-60mg-0.6ml-solinj-EE-I"> </a></p><div style="display: inline-block; background-color: #d9e0e7; padding: 6px; margin: 4px; border: 1px solid #8da1b4; border-radius: 5px; line-height: 60%"><p style="margin-bottom: 0px">Resource Ingredient &quot;Clexane-60mg-0.6ml-solinj-EE-I&quot; </p><p style="margin-bottom: 0px">Profile: <a href="StructureDefinition-PPLIngredient.html">PPL Ingredient profile</a></p></div><p><b>status</b>: active</p><p><b>for</b>: </p><ul><li><a href="#MedicinalProductDefinition_Clexane-60mg-0.6ml-solinj-EE-MPD">See above (MedicinalProductDefinition/Clexane-60mg-0.6ml-solinj-EE-MPD)</a></li><li><a href="#ManufacturedItemDefinition_Clexane-60mg-0.6ml-solinj-EE-MID">See above (ManufacturedItemDefinition/Clexane-60mg-0.6ml-solinj-EE-MID)</a></li><li><a href="#AdministrableProductDefinition_Clexane-60mg-0.6ml-solinj-EE-APD">See above (AdministrableProductDefinition/Clexane-60mg-0.6ml-solinj-EE-APD)</a></li></ul><p><b>role</b>: Active <span style="background: LightGoldenRodYellow; margin: 4px; border: 1px solid khaki"> (100000072050#100000072072)</span></p><blockquote><p><b>substance</b></p><h3>Codes</h3><table class="grid"><tr><td>-</td><td><b>Concept</b></td></tr><tr><td>*</td><td>Enoxaparin sodium <span style="background: LightGoldenRodYellow; margin: 4px; border: 1px solid khaki"> (SubstanceDefinition#100000090152)</span></td></tr></table><h3>Strengths</h3><table class="grid"><tr><td>-</td><td><b>Concentration[x]</b></td></tr><tr><td>*</td><td>60 milligram(s)<span style="background: LightGoldenRodYellow"> (Details: https://spor.ema.europa.eu/v1/lists/100000110633 code 100000110655 = 'milligram(s)')</span>/0.6 millilitre(s)<span style="background: LightGoldenRodYellow"> (Details: https://spor.ema.europa.eu/v1/lists/100000110633 code 100000110662 = 'millilitre(s)')</span></td></tr></table></blockquote></div>
        </text>
        <status value="active"/>
        <for>
          <reference value="MedicinalProductDefinition/Clexane-60mg-0.6ml-solinj-EE-MPD"/>
        </for>
        <for>
          <reference value="ManufacturedItemDefinition/Clexane-60mg-0.6ml-solinj-EE-MID"/>
        </for>
        <for>
          <reference value="AdministrableProductDefinition/Clexane-60mg-0.6ml-solinj-EE-APD"/>
        </for>
        <role>
          <coding>
            <system value="https://spor.ema.europa.eu/v1/lists/100000072050"/>
            <code value="100000072072"/>
            <display value="Active"/>
          </coding>
        </role>
        <substance>
          <code>
            <concept>
              <coding>
                <system value="https://spor.ema.europa.eu/v2/SubstanceDefinition"/>
                <code value="100000090152"/>
                <display value="Enoxaparin sodium"/>
              </coding>
            </concept>
          </code>
          <strength>
            <concentrationRatio>
              <numerator>
                <value value="60"/>
                <unit value="milligram(s)"/>
                <system value="https://spor.ema.europa.eu/v1/lists/100000110633"/>
                <code value="100000110655"/>
              </numerator>
              <denominator>
                <value value="0.6"/>
                <unit value="millilitre(s)"/>
                <system value="https://spor.ema.europa.eu/v1/lists/100000110633"/>
                <code value="100000110662"/>
              </denominator>
            </concentrationRatio>
          </strength>
        </substance>
      </Ingredient>
    </resource>
    <request>
      <method value="PUT"/>
      <url value="Ingredient/Clexane-60mg-0.6ml-solinj-EE-I"/>
    </request>
  </entry>
  <entry>
    <fullUrl value="https://hl7-eu.github.io/unicom-ig/branches/mpd-r4b/PackagedProductDefinition/Clexane-60mg-0.6ml-solinj-EE-PPD-1065552"/>
    <resource>
      <PackagedProductDefinition>
        <id value="Clexane-60mg-0.6ml-solinj-EE-PPD-1065552"/>
        <meta>
          <profile value="http://unicom-project.eu/fhir/StructureDefinition/PPLPackagedProductDefinition"/>
        </meta>
        <text>
          <status value="generated"/><div xmlns="http://www.w3.org/1999/xhtml"><p><b>Generated Narrative: PackagedProductDefinition</b><a name="Clexane-60mg-0.6ml-solinj-EE-PPD-1065552"> </a></p><div style="display: inline-block; background-color: #d9e0e7; padding: 6px; margin: 4px; border: 1px solid #8da1b4; border-radius: 5px; line-height: 60%"><p style="margin-bottom: 0px">Resource PackagedProductDefinition &quot;Clexane-60mg-0.6ml-solinj-EE-PPD-1065552&quot; </p><p style="margin-bottom: 0px">Profile: <a href="StructureDefinition-PPLPackagedProductDefinition.html">PPL Packaged Product profile</a></p></div><p><b>identifier</b>: id: EE-100001368-34217-1065552</p><p><b>packageFor</b>: <a href="#MedicinalProductDefinition_Clexane-60mg-0.6ml-solinj-EE-MPD">See above (MedicinalProductDefinition/Clexane-60mg-0.6ml-solinj-EE-MPD)</a></p><p><b>containedItemQuantity</b>: 2 Syringe<span style="background: LightGoldenRodYellow"> (Details: https://spor.ema.europa.eu/v1/lists/200000000014 code 200000002150 = 'Syringe')</span></p><p><b>description</b>: CLEXANE 6000 RÜ (60 mg)/0,6 ml: süstelahus süstlites (I tüüpi klaas), mis on varustatud kummikorgiga (klorobutüül ja bromobutüül) ning süstimisnõelaga (automaatse ohutussüsteemiga ERIS või PREVENTIS või ilma). </p><h3>MarketingStatuses</h3><table class="grid"><tr><td>-</td><td><b>Country</b></td><td><b>Status</b></td></tr><tr><td>*</td><td>Republic of Estonia <span style="background: LightGoldenRodYellow; margin: 4px; border: 1px solid khaki"> (<a href="CodeSystem-country-ema-cs.html">Country EMA</a>#100000000388)</span></td><td>Marketed <span style="background: LightGoldenRodYellow; margin: 4px; border: 1px solid khaki"> (100000072052#100000072083)</span></td></tr></table><blockquote><p><b>package</b></p><p><b>type</b>: Box <span style="background: LightGoldenRodYellow; margin: 4px; border: 1px solid khaki"> (100000073346#100000073498)</span></p><p><b>quantity</b>: 1</p><p><b>material</b>: Cardboard <span style="background: LightGoldenRodYellow; margin: 4px; border: 1px solid khaki"> (<a href="CodeSystem-material-ema-cs.html">Material EMA</a>#200000003529)</span></p><blockquote><p><b>package</b></p><p><b>type</b>: Pre-filled syringe <span style="background: LightGoldenRodYellow; margin: 4px; border: 1px solid khaki"> (100000073346#100000073544)</span></p><p><b>quantity</b>: 2</p><p><b>material</b>: Glass type I <span style="background: LightGoldenRodYellow; margin: 4px; border: 1px solid khaki"> (<a href="CodeSystem-material-ema-cs.html">Material EMA</a>#200000003204)</span></p></blockquote></blockquote></div>
        </text>
        <identifier>
          <system value="http://ema.europa.eu/example/pcid"/>
          <value value="EE-100001368-34217-1065552"/>
        </identifier>
        <packageFor>
          <reference value="MedicinalProductDefinition/Clexane-60mg-0.6ml-solinj-EE-MPD"/>
        </packageFor>
        <containedItemQuantity>
          <value value="2"/>
          <unit value="Syringe"/>
          <system value="https://spor.ema.europa.eu/v1/lists/200000000014"/>
          <code value="200000002150"/>
        </containedItemQuantity>
        <description value="CLEXANE 6000 RÜ (60 mg)/0,6 ml: süstelahus süstlites (I tüüpi klaas), mis on varustatud kummikorgiga (klorobutüül ja bromobutüül) ning süstimisnõelaga (automaatse ohutussüsteemiga ERIS või PREVENTIS või ilma). "/>
        <marketingStatus>
          <country>
            <coding>
              <system value="https://spor.ema.europa.eu/v1/lists/100000000002"/>
              <code value="100000000388"/>
              <display value="Republic of Estonia"/>
            </coding>
          </country>
          <status>
            <coding>
              <system value="https://spor.ema.europa.eu/v1/lists/100000072052"/>
              <code value="100000072083"/>
              <display value="Marketed"/>
            </coding>
          </status>
        </marketingStatus>
        <package>
          <type>
            <coding>
              <system value="https://spor.ema.europa.eu/v1/lists/100000073346"/>
              <code value="100000073498"/>
              <display value="Box"/>
            </coding>
          </type>
          <quantity value="1"/>
          <material>
            <coding>
              <system value="https://spor.ema.europa.eu/v1/lists/200000003199"/>
              <code value="200000003529"/>
              <display value="Cardboard"/>
            </coding>
          </material>
          <package>
            <type>
              <coding>
                <system value="https://spor.ema.europa.eu/v1/lists/100000073346"/>
                <code value="100000073544"/>
                <display value="Pre-filled syringe"/>
              </coding>
            </type>
            <quantity value="2"/>
            <material>
              <coding>
                <system value="https://spor.ema.europa.eu/v1/lists/200000003199"/>
                <code value="200000003204"/>
                <display value="Glass type I"/>
              </coding>
            </material>
            <containedItem>
              <item>
                <reference>
                  <reference value="ManufacturedItemDefinition/Clexane-60mg-0.6ml-solinj-EE-MID"/>
                </reference>
              </item>
              <amount>
                <value value="0.6"/>
                <unit value="millilitre(s)"/>
                <system value="https://spor.ema.europa.eu/v1/lists/100000110633"/>
                <code value="100000110662"/>
              </amount>
            </containedItem>
          </package>
        </package>
      </PackagedProductDefinition>
    </resource>
    <request>
      <method value="PUT"/>
      <url value="PackagedProductDefinition/Clexane-60mg-0.6ml-solinj-EE-PPD-1065552"/>
    </request>
  </entry>
</Bundle>