{
  "resourceType" : "Bundle",
  "id" : "010-Clexane-60mg-06ml-EE-FullProduct",
  "type" : "collection",
  "entry" : [{
    "fullUrl" : "https://hl7-eu.github.io/unicom-ig/branches/mpd-r4b/MedicinalProductDefinition-Clexane-60mg-06ml-solinj-EE-MPD",
    "resource" : {
      "resourceType" : "MedicinalProductDefinition",
      "id" : "Clexane-60mg-06ml-solinj-EE-MPD",
      "meta" : {
        "profile" : ["http://unicom-project.eu/fhir/StructureDefinition/PPLMedicinalProductDefinition"]
      },
      "text" : {
        "status" : "generated",
        "div" : "<div xmlns=\"http://www.w3.org/1999/xhtml\"><a name=\"MedicinalProductDefinition_Clexane-60mg-06ml-solinj-EE-MPD\"> </a><p class=\"res-header-id\"><b>Generated Narrative: MedicinalProductDefinition Clexane-60mg-06ml-solinj-EE-MPD</b></p><a name=\"Clexane-60mg-06ml-solinj-EE-MPD\"> </a><a name=\"hcClexane-60mg-06ml-solinj-EE-MPD\"> </a><a name=\"Clexane-60mg-06ml-solinj-EE-MPD-en-US\"> </a><p><b>identifier</b>: <code>http://ema.europa.eu/fhir/mpId</code>/EE-100001368-34217</p><p><b>domain</b>: <span title=\"Codes:{https://spor.ema.europa.eu/v1/lists/100000000004 100000000012}\">Human use</span></p><p><b>status</b>: <span title=\"Codes:{https://spor.ema.europa.eu/v1/lists/200000005003 200000005004}\">Current</span></p><p><b>combinedPharmaceuticalDoseForm</b>: <span title=\"Codes:{https://spor.ema.europa.eu/v1/lists/200000000004 100000073863}\">Solution for injection</span></p><p><b>legalStatusOfSupply</b>: <span title=\"Codes:{https://spor.ema.europa.eu/v1/lists/100000072051 100000072084}\">Medicinal product subject to medical prescription</span></p><p><b>classification</b>: <span title=\"Codes:{https://spor.ema.europa.eu/v1/lists/100000093533 100000094266}\">Enoxaparin</span>, <span title=\"Codes:{http://www.whocc.no/atc B01AB05}\">Enoxaparin</span></p><blockquote><p><b>name</b></p><p><b>productName</b>: Clexane, 6000 RÜ (60 mg)/0,6 ml süstelahus süstlis</p><blockquote><p><b>part</b></p><p><b>part</b>: Clexane</p><p><b>type</b>: <span title=\"Codes:{https://spor.ema.europa.eu/v1/lists/220000000000 220000000002}\">Invented name part</span></p></blockquote><blockquote><p><b>part</b></p><p><b>part</b>: 6000 RÜ</p><p><b>type</b>: <span title=\"Codes:{https://spor.ema.europa.eu/v1/lists/220000000000 220000000004}\">Strength part</span></p></blockquote><blockquote><p><b>part</b></p><p><b>part</b>: süstelahus süstlis</p><p><b>type</b>: <span title=\"Codes:{https://spor.ema.europa.eu/v1/lists/220000000000 220000000005}\">Pharmaceutical dose form part</span></p></blockquote><h3>Usages</h3><table class=\"grid\"><tr><td style=\"display: none\">-</td><td><b>Country</b></td><td><b>Language</b></td></tr><tr><td style=\"display: none\">*</td><td><span title=\"Codes:{https://spor.ema.europa.eu/v1/lists/100000000002 100000000388}\">Republic of Estonia</span></td><td><span title=\"Codes:{urn:ietf:bcp:47 et}\">Estonian</span></td></tr></table></blockquote></div>"
      },
      "identifier" : [{
        "system" : "http://ema.europa.eu/fhir/mpId",
        "value" : "EE-100001368-34217"
      }],
      "domain" : {
        "coding" : [{
          "system" : "https://spor.ema.europa.eu/v1/lists/100000000004",
          "code" : "100000000012",
          "display" : "Human use"
        }]
      },
      "status" : {
        "coding" : [{
          "system" : "https://spor.ema.europa.eu/v1/lists/200000005003",
          "code" : "200000005004",
          "display" : "Current"
        }]
      },
      "combinedPharmaceuticalDoseForm" : {
        "coding" : [{
          "system" : "https://spor.ema.europa.eu/v1/lists/200000000004",
          "code" : "100000073863",
          "display" : "Solution for injection"
        }]
      },
      "legalStatusOfSupply" : {
        "coding" : [{
          "system" : "https://spor.ema.europa.eu/v1/lists/100000072051",
          "code" : "100000072084",
          "display" : "Medicinal product subject to medical prescription"
        }]
      },
      "classification" : [{
        "coding" : [{
          "system" : "https://spor.ema.europa.eu/v1/lists/100000093533",
          "code" : "100000094266",
          "display" : "Enoxaparin"
        }]
      },
      {
        "coding" : [{
          "system" : "http://www.whocc.no/atc",
          "code" : "B01AB05",
          "display" : "Enoxaparin"
        }]
      }],
      "name" : [{
        "productName" : "Clexane, 6000 RÜ (60 mg)/0,6 ml süstelahus süstlis",
        "part" : [{
          "part" : "Clexane",
          "type" : {
            "coding" : [{
              "system" : "https://spor.ema.europa.eu/v1/lists/220000000000",
              "code" : "220000000002",
              "display" : "Invented name part"
            }]
          }
        },
        {
          "part" : "6000 RÜ",
          "type" : {
            "coding" : [{
              "system" : "https://spor.ema.europa.eu/v1/lists/220000000000",
              "code" : "220000000004",
              "display" : "Strength part"
            }]
          }
        },
        {
          "part" : "süstelahus süstlis",
          "type" : {
            "coding" : [{
              "system" : "https://spor.ema.europa.eu/v1/lists/220000000000",
              "code" : "220000000005",
              "display" : "Pharmaceutical dose form part"
            }]
          }
        }],
        "usage" : [{
          "country" : {
            "coding" : [{
              "system" : "https://spor.ema.europa.eu/v1/lists/100000000002",
              "code" : "100000000388",
              "display" : "Republic of Estonia"
            }]
          },
          "language" : {
            "coding" : [{
              "system" : "urn:ietf:bcp:47",
              "code" : "et",
              "display" : "Estonian"
            }]
          }
        }]
      }]
    }
  },
  {
    "fullUrl" : "https://hl7-eu.github.io/unicom-ig/branches/mpd-r4b/RegulatedAuthorization-Clexane-60mg-06ml-solinj-EE-RA",
    "resource" : {
      "resourceType" : "RegulatedAuthorization",
      "id" : "Clexane-60mg-06ml-solinj-EE-RA",
      "meta" : {
        "profile" : ["http://unicom-project.eu/fhir/StructureDefinition/PPLRegulatedAuthorization"]
      },
      "text" : {
        "status" : "generated",
        "div" : "<div xmlns=\"http://www.w3.org/1999/xhtml\"><a name=\"RegulatedAuthorization_Clexane-60mg-06ml-solinj-EE-RA\"> </a><p class=\"res-header-id\"><b>Generated Narrative: RegulatedAuthorization Clexane-60mg-06ml-solinj-EE-RA</b></p><a name=\"Clexane-60mg-06ml-solinj-EE-RA\"> </a><a name=\"hcClexane-60mg-06ml-solinj-EE-RA\"> </a><a name=\"Clexane-60mg-06ml-solinj-EE-RA-en-US\"> </a><p><b>identifier</b>: 940517</p><p><b>subject</b>: <a href=\"Bundle-010-Clexane-60mg-06ml-EE-FullProduct.html#MedicinalProductDefinition_Clexane-60mg-06ml-solinj-EE-MPD\">Bundle: type = collection</a></p><p><b>type</b>: <span title=\"Codes:{https://spor.ema.europa.eu/v1/lists/220000000060 220000000061}\">Marketing Authorisation</span></p><p><b>region</b>: <span title=\"Codes:{https://spor.ema.europa.eu/v1/lists/100000000002 100000000388}\">Republic of Estonia</span></p><p><b>status</b>: <span title=\"Codes:{https://spor.ema.europa.eu/v1/lists/100000072049 200000017708}\">Valid - Renewed/Varied</span></p><p><b>statusDate</b>: 2022-06-28</p><p><b>holder</b>: <a href=\"Bundle-010-Clexane-60mg-06ml-EE-FullProduct.html#Organization_LOC-100001368-Sanofi-Aventis\">Bundle: type = collection</a></p></div>"
      },
      "identifier" : [{
        "value" : "940517"
      }],
      "subject" : [{
        "reference" : "MedicinalProductDefinition/Clexane-60mg-06ml-solinj-EE-MPD"
      }],
      "type" : {
        "coding" : [{
          "system" : "https://spor.ema.europa.eu/v1/lists/220000000060",
          "code" : "220000000061",
          "display" : "Marketing Authorisation"
        }]
      },
      "region" : [{
        "coding" : [{
          "system" : "https://spor.ema.europa.eu/v1/lists/100000000002",
          "code" : "100000000388",
          "display" : "Republic of Estonia"
        }]
      }],
      "status" : {
        "coding" : [{
          "system" : "https://spor.ema.europa.eu/v1/lists/100000072049",
          "code" : "200000017708",
          "display" : "Valid - Renewed/Varied"
        }]
      },
      "statusDate" : "2022-06-28",
      "holder" : {
        "reference" : "Organization/LOC-100001368-Sanofi-Aventis"
      }
    }
  },
  {
    "fullUrl" : "https://hl7-eu.github.io/unicom-ig/branches/mpd-r4b/Organization-LOC-100001368-Sanofi-Aventis",
    "resource" : {
      "resourceType" : "Organization",
      "id" : "LOC-100001368-Sanofi-Aventis",
      "meta" : {
        "profile" : ["http://unicom-project.eu/fhir/StructureDefinition/PPLOrganization"]
      },
      "text" : {
        "status" : "generated",
        "div" : "<div xmlns=\"http://www.w3.org/1999/xhtml\"><a name=\"Organization_LOC-100001368-Sanofi-Aventis\"> </a><p class=\"res-header-id\"><b>Generated Narrative: Organization LOC-100001368-Sanofi-Aventis</b></p><a name=\"LOC-100001368-Sanofi-Aventis\"> </a><a name=\"hcLOC-100001368-Sanofi-Aventis\"> </a><a name=\"LOC-100001368-Sanofi-Aventis-en-US\"> </a><p><b>identifier</b>: <code>https://spor.ema.europa.eu/v1/locations</code>/LOC-100001368</p><p><b>name</b>: Sanofi-Aventis Groupe</p></div>"
      },
      "identifier" : [{
        "system" : "https://spor.ema.europa.eu/v1/locations",
        "value" : "LOC-100001368"
      }],
      "name" : "Sanofi-Aventis Groupe"
    }
  },
  {
    "fullUrl" : "https://hl7-eu.github.io/unicom-ig/branches/mpd-r4b/AdministrableProductDefinition-Clexane-60mg-06ml-solinj-EE-APD",
    "resource" : {
      "resourceType" : "AdministrableProductDefinition",
      "id" : "Clexane-60mg-06ml-solinj-EE-APD",
      "meta" : {
        "profile" : ["http://unicom-project.eu/fhir/StructureDefinition/PPLAdministrableProductDefinition"]
      },
      "text" : {
        "status" : "generated",
        "div" : "<div xmlns=\"http://www.w3.org/1999/xhtml\"><a name=\"AdministrableProductDefinition_Clexane-60mg-06ml-solinj-EE-APD\"> </a><p class=\"res-header-id\"><b>Generated Narrative: AdministrableProductDefinition Clexane-60mg-06ml-solinj-EE-APD</b></p><a name=\"Clexane-60mg-06ml-solinj-EE-APD\"> </a><a name=\"hcClexane-60mg-06ml-solinj-EE-APD\"> </a><a name=\"Clexane-60mg-06ml-solinj-EE-APD-en-US\"> </a><p><b>status</b>: Active</p><p><b>formOf</b>: <a href=\"Bundle-010-Clexane-60mg-06ml-EE-FullProduct.html#MedicinalProductDefinition_Clexane-60mg-06ml-solinj-EE-MPD\">Bundle: type = collection</a></p><p><b>administrableDoseForm</b>: <span title=\"Codes:{https://spor.ema.europa.eu/v1/lists/200000000004 100000073863}\">Solution for injection</span></p><p><b>unitOfPresentation</b>: <span title=\"Codes:{https://spor.ema.europa.eu/v1/lists/200000000014 200000002150}\">Syringe</span></p><p><b>producedFrom</b>: <a href=\"Bundle-010-Clexane-60mg-06ml-EE-FullProduct.html#ManufacturedItemDefinition_Clexane-60mg-06ml-solinj-EE-MID\">Bundle: type = collection</a></p><h3>RouteOfAdministrations</h3><table class=\"grid\"><tr><td style=\"display: none\">-</td><td><b>Code</b></td></tr><tr><td style=\"display: none\">*</td><td><span title=\"Codes:{https://spor.ema.europa.eu/v1/lists/100000073345 100000073633}\">Subcutaneous use</span></td></tr></table></div>"
      },
      "status" : "active",
      "formOf" : [{
        "reference" : "MedicinalProductDefinition/Clexane-60mg-06ml-solinj-EE-MPD"
      }],
      "administrableDoseForm" : {
        "coding" : [{
          "system" : "https://spor.ema.europa.eu/v1/lists/200000000004",
          "code" : "100000073863",
          "display" : "Solution for injection"
        }]
      },
      "unitOfPresentation" : {
        "coding" : [{
          "system" : "https://spor.ema.europa.eu/v1/lists/200000000014",
          "code" : "200000002150",
          "display" : "Syringe"
        }]
      },
      "producedFrom" : [{
        "reference" : "ManufacturedItemDefinition/Clexane-60mg-06ml-solinj-EE-MID"
      }],
      "routeOfAdministration" : [{
        "code" : {
          "coding" : [{
            "system" : "https://spor.ema.europa.eu/v1/lists/100000073345",
            "code" : "100000073633",
            "display" : "Subcutaneous use"
          }]
        }
      }]
    }
  },
  {
    "fullUrl" : "https://hl7-eu.github.io/unicom-ig/branches/mpd-r4b/ManufacturedItemDefinition-Clexane-60mg-06ml-solinj-EE-MID",
    "resource" : {
      "resourceType" : "ManufacturedItemDefinition",
      "id" : "Clexane-60mg-06ml-solinj-EE-MID",
      "meta" : {
        "profile" : ["http://unicom-project.eu/fhir/StructureDefinition/PPLManufacturedItemDefinition"]
      },
      "text" : {
        "status" : "generated",
        "div" : "<div xmlns=\"http://www.w3.org/1999/xhtml\"><a name=\"ManufacturedItemDefinition_Clexane-60mg-06ml-solinj-EE-MID\"> </a><p class=\"res-header-id\"><b>Generated Narrative: ManufacturedItemDefinition Clexane-60mg-06ml-solinj-EE-MID</b></p><a name=\"Clexane-60mg-06ml-solinj-EE-MID\"> </a><a name=\"hcClexane-60mg-06ml-solinj-EE-MID\"> </a><a name=\"Clexane-60mg-06ml-solinj-EE-MID-en-US\"> </a><p><b>status</b>: Active</p><p><b>manufacturedDoseForm</b>: <span title=\"Codes:{https://spor.ema.europa.eu/v1/lists/200000000004 100000073863}\">Solution for injection</span></p><p><b>unitOfPresentation</b>: <span title=\"Codes:{https://spor.ema.europa.eu/v1/lists/200000000014 200000002150}\">Syringe</span></p></div>"
      },
      "status" : "active",
      "manufacturedDoseForm" : {
        "coding" : [{
          "system" : "https://spor.ema.europa.eu/v1/lists/200000000004",
          "code" : "100000073863",
          "display" : "Solution for injection"
        }]
      },
      "unitOfPresentation" : {
        "coding" : [{
          "system" : "https://spor.ema.europa.eu/v1/lists/200000000014",
          "code" : "200000002150",
          "display" : "Syringe"
        }]
      }
    }
  },
  {
    "fullUrl" : "https://hl7-eu.github.io/unicom-ig/branches/mpd-r4b/Ingredient-Clexane-60mg-06ml-solinj-EE-I",
    "resource" : {
      "resourceType" : "Ingredient",
      "id" : "Clexane-60mg-06ml-solinj-EE-I",
      "meta" : {
        "profile" : ["http://unicom-project.eu/fhir/StructureDefinition/PPLIngredient"]
      },
      "text" : {
        "status" : "generated",
        "div" : "<div xmlns=\"http://www.w3.org/1999/xhtml\"><a name=\"Ingredient_Clexane-60mg-06ml-solinj-EE-I\"> </a><p class=\"res-header-id\"><b>Generated Narrative: Ingredient Clexane-60mg-06ml-solinj-EE-I</b></p><a name=\"Clexane-60mg-06ml-solinj-EE-I\"> </a><a name=\"hcClexane-60mg-06ml-solinj-EE-I\"> </a><a name=\"Clexane-60mg-06ml-solinj-EE-I-en-US\"> </a><p><b>status</b>: Active</p><p><b>for</b>: </p><ul><li><a href=\"Bundle-010-Clexane-60mg-06ml-EE-FullProduct.html#MedicinalProductDefinition_Clexane-60mg-06ml-solinj-EE-MPD\">Bundle: type = collection</a></li><li><a href=\"Bundle-010-Clexane-60mg-06ml-EE-FullProduct.html#ManufacturedItemDefinition_Clexane-60mg-06ml-solinj-EE-MID\">Bundle: type = collection</a></li><li><a href=\"Bundle-010-Clexane-60mg-06ml-EE-FullProduct.html#AdministrableProductDefinition_Clexane-60mg-06ml-solinj-EE-APD\">Bundle: type = collection</a></li></ul><p><b>role</b>: <span title=\"Codes:{https://spor.ema.europa.eu/v1/lists/100000072050 100000072072}\">Active</span></p><blockquote><p><b>substance</b></p><h3>Codes</h3><table class=\"grid\"><tr><td style=\"display: none\">-</td><td><b>Concept</b></td></tr><tr><td style=\"display: none\">*</td><td><span title=\"Codes:{https://spor.ema.europa.eu/v2/SubstanceDefinition 100000090152}\">Enoxaparin sodium</span></td></tr></table><h3>Strengths</h3><table class=\"grid\"><tr><td style=\"display: none\">-</td><td><b>Presentation[x]</b></td></tr><tr><td style=\"display: none\">*</td><td>60 milligram(s)<span style=\"background: LightGoldenRodYellow\"> (Details: Unit of Measurement EMA  code100000110655 = 'milligram(s)')</span>/0.6 millilitre(s)<span style=\"background: LightGoldenRodYellow\"> (Details: Unit of Measurement EMA  code100000110662 = 'millilitre(s)')</span></td></tr></table></blockquote></div>"
      },
      "status" : "active",
      "for" : [{
        "reference" : "MedicinalProductDefinition/Clexane-60mg-06ml-solinj-EE-MPD"
      },
      {
        "reference" : "ManufacturedItemDefinition/Clexane-60mg-06ml-solinj-EE-MID"
      },
      {
        "reference" : "AdministrableProductDefinition/Clexane-60mg-06ml-solinj-EE-APD"
      }],
      "role" : {
        "coding" : [{
          "system" : "https://spor.ema.europa.eu/v1/lists/100000072050",
          "code" : "100000072072",
          "display" : "Active"
        }]
      },
      "substance" : {
        "code" : {
          "concept" : {
            "coding" : [{
              "system" : "https://spor.ema.europa.eu/v2/SubstanceDefinition",
              "code" : "100000090152",
              "display" : "Enoxaparin sodium"
            }]
          }
        },
        "strength" : [{
          "presentationRatio" : {
            "numerator" : {
              "value" : 60,
              "unit" : "milligram(s)",
              "system" : "https://spor.ema.europa.eu/v1/lists/100000110633",
              "code" : "100000110655"
            },
            "denominator" : {
              "value" : 0.6,
              "unit" : "millilitre(s)",
              "system" : "https://spor.ema.europa.eu/v1/lists/100000110633",
              "code" : "100000110662"
            }
          }
        }]
      }
    }
  },
  {
    "fullUrl" : "https://hl7-eu.github.io/unicom-ig/branches/mpd-r4b/PackagedProductDefinition-Clexane-60mg-06ml-solinj-EE-PPD-1065552",
    "resource" : {
      "resourceType" : "PackagedProductDefinition",
      "id" : "Clexane-60mg-06ml-solinj-EE-PPD-1065552",
      "meta" : {
        "profile" : ["http://unicom-project.eu/fhir/StructureDefinition/PPLPackagedProductDefinition"]
      },
      "text" : {
        "status" : "generated",
        "div" : "<div xmlns=\"http://www.w3.org/1999/xhtml\"><a name=\"PackagedProductDefinition_Clexane-60mg-06ml-solinj-EE-PPD-1065552\"> </a><p class=\"res-header-id\"><b>Generated Narrative: PackagedProductDefinition Clexane-60mg-06ml-solinj-EE-PPD-1065552</b></p><a name=\"Clexane-60mg-06ml-solinj-EE-PPD-1065552\"> </a><a name=\"hcClexane-60mg-06ml-solinj-EE-PPD-1065552\"> </a><a name=\"Clexane-60mg-06ml-solinj-EE-PPD-1065552-en-US\"> </a><p><b>identifier</b>: <code>http://ema.europa.eu/example/pcid</code>/EE-100001368-34217-1065552</p><p><b>packageFor</b>: <a href=\"Bundle-010-Clexane-60mg-06ml-EE-FullProduct.html#MedicinalProductDefinition_Clexane-60mg-06ml-solinj-EE-MPD\">Bundle: type = collection</a></p><p><b>containedItemQuantity</b>: 2 Syringe<span style=\"background: LightGoldenRodYellow\"> (Details: Unit of Presentation EMA  code200000002150 = 'Syringe')</span></p><p><b>description</b>: </p><div><p>CLEXANE 6000 RÜ (60 mg)/0,6 ml: süstelahus süstlites (I tüüpi klaas), mis on varustatud kummikorgiga (klorobutüül ja bromobutüül) ning süstimisnõelaga (automaatse ohutussüsteemiga ERIS või PREVENTIS või ilma).</p>\n</div><h3>MarketingStatuses</h3><table class=\"grid\"><tr><td style=\"display: none\">-</td><td><b>Country</b></td><td><b>Status</b></td></tr><tr><td style=\"display: none\">*</td><td><span title=\"Codes:{https://spor.ema.europa.eu/v1/lists/100000000002 100000000388}\">Republic of Estonia</span></td><td><span title=\"Codes:{https://spor.ema.europa.eu/v1/lists/100000072052 100000072083}\">Marketed</span></td></tr></table><blockquote><p><b>packaging</b></p><p><b>type</b>: <span title=\"Codes:{https://spor.ema.europa.eu/v1/lists/100000073346 100000073498}\">Box</span></p><p><b>quantity</b>: 1</p><p><b>material</b>: <span title=\"Codes:{https://spor.ema.europa.eu/v1/lists/200000003199 200000003529}\">Cardboard</span></p><blockquote><p><b>packaging</b></p></blockquote></blockquote></div>"
      },
      "identifier" : [{
        "system" : "http://ema.europa.eu/example/pcid",
        "value" : "EE-100001368-34217-1065552"
      }],
      "packageFor" : [{
        "reference" : "MedicinalProductDefinition/Clexane-60mg-06ml-solinj-EE-MPD"
      }],
      "containedItemQuantity" : [{
        "value" : 2,
        "unit" : "Syringe",
        "system" : "https://spor.ema.europa.eu/v1/lists/200000000014",
        "code" : "200000002150"
      }],
      "description" : "CLEXANE 6000 RÜ (60 mg)/0,6 ml: süstelahus süstlites (I tüüpi klaas), mis on varustatud kummikorgiga (klorobutüül ja bromobutüül) ning süstimisnõelaga (automaatse ohutussüsteemiga ERIS või PREVENTIS või ilma). ",
      "marketingStatus" : [{
        "country" : {
          "coding" : [{
            "system" : "https://spor.ema.europa.eu/v1/lists/100000000002",
            "code" : "100000000388",
            "display" : "Republic of Estonia"
          }]
        },
        "status" : {
          "coding" : [{
            "system" : "https://spor.ema.europa.eu/v1/lists/100000072052",
            "code" : "100000072083",
            "display" : "Marketed"
          }]
        }
      }],
      "packaging" : {
        "type" : {
          "coding" : [{
            "system" : "https://spor.ema.europa.eu/v1/lists/100000073346",
            "code" : "100000073498",
            "display" : "Box"
          }]
        },
        "quantity" : 1,
        "material" : [{
          "coding" : [{
            "system" : "https://spor.ema.europa.eu/v1/lists/200000003199",
            "code" : "200000003529",
            "display" : "Cardboard"
          }]
        }],
        "packaging" : [{
          "type" : {
            "coding" : [{
              "system" : "https://spor.ema.europa.eu/v1/lists/100000073346",
              "code" : "100000073544",
              "display" : "Pre-filled syringe"
            }]
          },
          "quantity" : 2,
          "material" : [{
            "coding" : [{
              "system" : "https://spor.ema.europa.eu/v1/lists/200000003199",
              "code" : "200000003204",
              "display" : "Glass type I"
            }]
          }],
          "containedItem" : [{
            "item" : {
              "reference" : {
                "reference" : "ManufacturedItemDefinition/Clexane-60mg-06ml-solinj-EE-MID"
              }
            },
            "amount" : {
              "value" : 0.6,
              "unit" : "millilitre(s)",
              "system" : "https://spor.ema.europa.eu/v1/lists/100000110633",
              "code" : "100000110662"
            }
          }]
        }]
      }
    }
  }]
}