{
  "resourceType" : "Bundle",
  "id" : "003-CefuroximStragen-1-5g-Powder-SE-FullProduct",
  "type" : "collection",
  "entry" : [{
    "fullUrl" : "https://hl7-eu.github.io/unicom-ig/branches/mpd-r4b/MedicinalProductDefinition-CefuroximStragen-1-5g-Powder-SE-IS-MedicinalProductDefinition",
    "resource" : {
      "resourceType" : "MedicinalProductDefinition",
      "id" : "CefuroximStragen-1-5g-Powder-SE-IS-MedicinalProductDefinition",
      "meta" : {
        "profile" : ["http://unicom-project.eu/fhir/StructureDefinition/PPLMedicinalProductDefinition"]
      },
      "text" : {
        "status" : "generated",
        "div" : "<div xmlns=\"http://www.w3.org/1999/xhtml\"><a name=\"MedicinalProductDefinition_CefuroximStragen-1-5g-Powder-SE-IS-MedicinalProductDefinition\"> </a><p class=\"res-header-id\"><b>Generated Narrative: MedicinalProductDefinition CefuroximStragen-1-5g-Powder-SE-IS-MedicinalProductDefinition</b></p><a name=\"CefuroximStragen-1-5g-Powder-SE-IS-MedicinalProductDefinition\"> </a><a name=\"hcCefuroximStragen-1-5g-Powder-SE-IS-MedicinalProductDefinition\"> </a><a name=\"CefuroximStragen-1-5g-Powder-SE-IS-MedicinalProductDefinition-en-US\"> </a><p><b>identifier</b>: <code>http://ema.europa.eu/fhir/eurdId</code>/615</p><p><b>domain</b>: <span title=\"Codes:{https://spor.ema.europa.eu/v1/lists/100000000004 100000000012}\">Human use</span></p><p><b>status</b>: <span title=\"Codes:{https://spor.ema.europa.eu/v1/lists/200000005003 200000005004}\">Current</span></p><p><b>combinedPharmaceuticalDoseForm</b>: <span title=\"Codes:{https://spor.ema.europa.eu/v1/lists/200000000004 100000116186}\">Powder for solution for injection/infusion</span></p><p><b>indication</b>: </p><div><p>Cefuroxim Stragen är avsett för behandling av nedanstående infektioner hos vuxna och barn, även  nyfödda (från födelsen). • Samhällsförvärvad pneumoni • Akut exacerbation av kronisk bronkit. • Komplicerade urinvägsinfektioner, även pyelonefrit. • Mjukdelsinfektioner: cellulit, erysipelas och sårinfektioner. • Intraabdominella infektioner. • Profylax mot infektion inför gastrointestinal (även esofageal), ortopedisk, kardiovaskulär och  gynekologisk operation (även kejsarsnitt). Vid behandling och förebyggande av infektioner då det är mycket troligt att anaeroba organismer  påträffas ska cefuroxim administreras tillsammans med ett lämpligt antianaerobt antibiotikum. Hänsyn ska tas till officiella riktlinjer om lämplig användning av antibakteriella medel.</p>\n</div><p><b>legalStatusOfSupply</b>: <span title=\"Codes:{https://spor.ema.europa.eu/v1/lists/100000072051 100000072084}\">Medicinal product subject to medical prescription</span></p><p><b>classification</b>: <span title=\"Codes:{https://spor.ema.europa.eu/v1/lists/100000093533 100000096183}\">Cefuroxime</span>, <span title=\"Codes:{http://www.whocc.no/atc J01DC02}\">cefuroxime</span></p><blockquote><p><b>name</b></p><p><b>productName</b>: Cefuroxim Stragen 1,5 g Pulver till injektions-/infusionsvätska, lösning</p><blockquote><p><b>part</b></p><p><b>part</b>: Cefuroxim Stragen</p><p><b>type</b>: <span title=\"Codes:{https://spor.ema.europa.eu/v1/lists/220000000000 220000000002}\">Invented name part</span></p></blockquote><blockquote><p><b>part</b></p><p><b>part</b>: 1,5 g</p><p><b>type</b>: <span title=\"Codes:{https://spor.ema.europa.eu/v1/lists/220000000000 220000000004}\">Strength part</span></p></blockquote><blockquote><p><b>part</b></p><p><b>part</b>: Pulver till injektions-/infusionsvätska, lösning</p><p><b>type</b>: <span title=\"Codes:{https://spor.ema.europa.eu/v1/lists/220000000000 220000000005}\">Pharmaceutical dose form part</span></p></blockquote><h3>Usages</h3><table class=\"grid\"><tr><td style=\"display: none\">-</td><td><b>Country</b></td><td><b>Language</b></td></tr><tr><td style=\"display: none\">*</td><td><span title=\"Codes:{https://spor.ema.europa.eu/v1/lists/100000000002 100000000535}\">Kingdom of Sweden</span></td><td><span title=\"Codes:{urn:ietf:bcp:47 sv}\">Swedish</span></td></tr></table></blockquote></div>"
      },
      "identifier" : [{
        "system" : "http://ema.europa.eu/fhir/eurdId",
        "value" : "615"
      }],
      "domain" : {
        "coding" : [{
          "system" : "https://spor.ema.europa.eu/v1/lists/100000000004",
          "code" : "100000000012",
          "display" : "Human use"
        }]
      },
      "status" : {
        "coding" : [{
          "system" : "https://spor.ema.europa.eu/v1/lists/200000005003",
          "code" : "200000005004",
          "display" : "Current"
        }]
      },
      "combinedPharmaceuticalDoseForm" : {
        "coding" : [{
          "system" : "https://spor.ema.europa.eu/v1/lists/200000000004",
          "code" : "100000116186",
          "display" : "Powder for solution for injection/infusion"
        }]
      },
      "indication" : "Cefuroxim Stragen är avsett för behandling av nedanstående infektioner hos vuxna och barn, även  nyfödda (från födelsen). • Samhällsförvärvad pneumoni • Akut exacerbation av kronisk bronkit. • Komplicerade urinvägsinfektioner, även pyelonefrit. • Mjukdelsinfektioner: cellulit, erysipelas och sårinfektioner. • Intraabdominella infektioner. • Profylax mot infektion inför gastrointestinal (även esofageal), ortopedisk, kardiovaskulär och  gynekologisk operation (även kejsarsnitt). Vid behandling och förebyggande av infektioner då det är mycket troligt att anaeroba organismer  påträffas ska cefuroxim administreras tillsammans med ett lämpligt antianaerobt antibiotikum. Hänsyn ska tas till officiella riktlinjer om lämplig användning av antibakteriella medel. ",
      "legalStatusOfSupply" : {
        "coding" : [{
          "system" : "https://spor.ema.europa.eu/v1/lists/100000072051",
          "code" : "100000072084",
          "display" : "Medicinal product subject to medical prescription"
        }]
      },
      "classification" : [{
        "coding" : [{
          "system" : "https://spor.ema.europa.eu/v1/lists/100000093533",
          "code" : "100000096183",
          "display" : "Cefuroxime"
        }]
      },
      {
        "coding" : [{
          "system" : "http://www.whocc.no/atc",
          "code" : "J01DC02",
          "display" : "cefuroxime"
        }]
      }],
      "name" : [{
        "productName" : "Cefuroxim Stragen 1,5 g Pulver till injektions-/infusionsvätska, lösning",
        "part" : [{
          "part" : "Cefuroxim Stragen",
          "type" : {
            "coding" : [{
              "system" : "https://spor.ema.europa.eu/v1/lists/220000000000",
              "code" : "220000000002",
              "display" : "Invented name part"
            }]
          }
        },
        {
          "part" : "1,5 g",
          "type" : {
            "coding" : [{
              "system" : "https://spor.ema.europa.eu/v1/lists/220000000000",
              "code" : "220000000004",
              "display" : "Strength part"
            }]
          }
        },
        {
          "part" : "Pulver till injektions-/infusionsvätska, lösning",
          "type" : {
            "coding" : [{
              "system" : "https://spor.ema.europa.eu/v1/lists/220000000000",
              "code" : "220000000005",
              "display" : "Pharmaceutical dose form part"
            }]
          }
        }],
        "usage" : [{
          "country" : {
            "coding" : [{
              "system" : "https://spor.ema.europa.eu/v1/lists/100000000002",
              "code" : "100000000535",
              "display" : "Kingdom of Sweden"
            }]
          },
          "language" : {
            "coding" : [{
              "system" : "urn:ietf:bcp:47",
              "code" : "sv",
              "display" : "Swedish"
            }]
          }
        }]
      }]
    }
  },
  {
    "fullUrl" : "https://hl7-eu.github.io/unicom-ig/branches/mpd-r4b/RegulatedAuthorization-CefuroximStragen-1-5g-Powder-SE-IS-RegulatedAuthorization",
    "resource" : {
      "resourceType" : "RegulatedAuthorization",
      "id" : "CefuroximStragen-1-5g-Powder-SE-IS-RegulatedAuthorization",
      "meta" : {
        "profile" : ["http://unicom-project.eu/fhir/StructureDefinition/PPLRegulatedAuthorization"]
      },
      "text" : {
        "status" : "generated",
        "div" : "<div xmlns=\"http://www.w3.org/1999/xhtml\"><a name=\"RegulatedAuthorization_CefuroximStragen-1-5g-Powder-SE-IS-RegulatedAuthorization\"> </a><p class=\"res-header-id\"><b>Generated Narrative: RegulatedAuthorization CefuroximStragen-1-5g-Powder-SE-IS-RegulatedAuthorization</b></p><a name=\"CefuroximStragen-1-5g-Powder-SE-IS-RegulatedAuthorization\"> </a><a name=\"hcCefuroximStragen-1-5g-Powder-SE-IS-RegulatedAuthorization\"> </a><a name=\"CefuroximStragen-1-5g-Powder-SE-IS-RegulatedAuthorization-en-US\"> </a><p><b>identifier</b>: 50006</p><p><b>subject</b>: <a href=\"Bundle-003-CefuroximStragen-1-5g-Powder-SE-FullProduct.html#MedicinalProductDefinition_CefuroximStragen-1-5g-Powder-SE-IS-MedicinalProductDefinition\">Bundle: type = collection</a></p><p><b>type</b>: <span title=\"Codes:{https://spor.ema.europa.eu/v1/lists/220000000060 220000000061}\">Marketing Authorisation</span></p><p><b>region</b>: <span title=\"Codes:{https://spor.ema.europa.eu/v1/lists/100000000002 100000000535}\">Kingdom of Sweden</span></p><p><b>status</b>: <span title=\"Codes:{https://spor.ema.europa.eu/v1/lists/100000072049 100000072099}\">Valid</span></p><p><b>statusDate</b>: 2014-06-11</p><p><b>holder</b>: <a href=\"Bundle-003-CefuroximStragen-1-5g-Powder-SE-FullProduct.html#Organization_LOC-100001098-StragenNordic\">Bundle: type = collection</a></p></div>"
      },
      "identifier" : [{
        "value" : "50006"
      }],
      "subject" : [{
        "reference" : "MedicinalProductDefinition/CefuroximStragen-1-5g-Powder-SE-IS-MedicinalProductDefinition"
      }],
      "type" : {
        "coding" : [{
          "system" : "https://spor.ema.europa.eu/v1/lists/220000000060",
          "code" : "220000000061",
          "display" : "Marketing Authorisation"
        }]
      },
      "region" : [{
        "coding" : [{
          "system" : "https://spor.ema.europa.eu/v1/lists/100000000002",
          "code" : "100000000535",
          "display" : "Kingdom of Sweden"
        }]
      }],
      "status" : {
        "coding" : [{
          "system" : "https://spor.ema.europa.eu/v1/lists/100000072049",
          "code" : "100000072099",
          "display" : "Valid"
        }]
      },
      "statusDate" : "2014-06-11",
      "holder" : {
        "reference" : "Organization/LOC-100001098-StragenNordic"
      }
    }
  },
  {
    "fullUrl" : "https://hl7-eu.github.io/unicom-ig/branches/mpd-r4b/Organization-LOC-100001098-StragenNordic",
    "resource" : {
      "resourceType" : "Organization",
      "id" : "LOC-100001098-StragenNordic",
      "meta" : {
        "profile" : ["http://unicom-project.eu/fhir/StructureDefinition/PPLOrganization"]
      },
      "text" : {
        "status" : "generated",
        "div" : "<div xmlns=\"http://www.w3.org/1999/xhtml\"><a name=\"Organization_LOC-100001098-StragenNordic\"> </a><p class=\"res-header-id\"><b>Generated Narrative: Organization LOC-100001098-StragenNordic</b></p><a name=\"LOC-100001098-StragenNordic\"> </a><a name=\"hcLOC-100001098-StragenNordic\"> </a><a name=\"LOC-100001098-StragenNordic-en-US\"> </a><p><b>identifier</b>: <code>https://spor.ema.europa.eu/v1/locations</code>/LOC-100001098</p><p><b>name</b>: Stragen Nordic A/S</p></div>"
      },
      "identifier" : [{
        "system" : "https://spor.ema.europa.eu/v1/locations",
        "value" : "LOC-100001098"
      }],
      "name" : "Stragen Nordic A/S"
    }
  },
  {
    "fullUrl" : "https://hl7-eu.github.io/unicom-ig/branches/mpd-r4b/AdministrableProductDefinition-CefuroximStragen-1-5g-Powder-SE-IS-AdminProdDef",
    "resource" : {
      "resourceType" : "AdministrableProductDefinition",
      "id" : "CefuroximStragen-1-5g-Powder-SE-IS-AdminProdDef",
      "meta" : {
        "profile" : ["http://unicom-project.eu/fhir/StructureDefinition/PPLAdministrableProductDefinition"]
      },
      "text" : {
        "status" : "generated",
        "div" : "<div xmlns=\"http://www.w3.org/1999/xhtml\"><a name=\"AdministrableProductDefinition_CefuroximStragen-1-5g-Powder-SE-IS-AdminProdDef\"> </a><p class=\"res-header-id\"><b>Generated Narrative: AdministrableProductDefinition CefuroximStragen-1-5g-Powder-SE-IS-AdminProdDef</b></p><a name=\"CefuroximStragen-1-5g-Powder-SE-IS-AdminProdDef\"> </a><a name=\"hcCefuroximStragen-1-5g-Powder-SE-IS-AdminProdDef\"> </a><a name=\"CefuroximStragen-1-5g-Powder-SE-IS-AdminProdDef-en-US\"> </a><p><b>status</b>: Active</p><p><b>formOf</b>: <a href=\"Bundle-003-CefuroximStragen-1-5g-Powder-SE-FullProduct.html#MedicinalProductDefinition_CefuroximStragen-1-5g-Powder-SE-IS-MedicinalProductDefinition\">Bundle: type = collection</a></p><p><b>administrableDoseForm</b>: <span title=\"Codes:{https://spor.ema.europa.eu/v1/lists/200000000004 100000074038}\">Solution for injection/infusion</span></p><p><b>producedFrom</b>: <a href=\"Bundle-003-CefuroximStragen-1-5g-Powder-SE-FullProduct.html#ManufacturedItemDefinition_CefuroximStragen-1-5g-Powder-SE-IS-ManufacturedItemDefinition\">Bundle: type = collection</a></p><h3>RouteOfAdministrations</h3><table class=\"grid\"><tr><td style=\"display: none\">-</td><td><b>Code</b></td></tr><tr><td style=\"display: none\">*</td><td><span title=\"Codes:{https://spor.ema.europa.eu/v1/lists/100000073345 100000073600}, {https://spor.ema.europa.eu/v1/lists/100000073345 100000073611}\">Intramuscular use</span></td></tr></table></div>"
      },
      "status" : "active",
      "formOf" : [{
        "reference" : "MedicinalProductDefinition/CefuroximStragen-1-5g-Powder-SE-IS-MedicinalProductDefinition"
      }],
      "administrableDoseForm" : {
        "coding" : [{
          "system" : "https://spor.ema.europa.eu/v1/lists/200000000004",
          "code" : "100000074038",
          "display" : "Solution for injection/infusion"
        }]
      },
      "producedFrom" : [{
        "reference" : "ManufacturedItemDefinition/CefuroximStragen-1-5g-Powder-SE-IS-ManufacturedItemDefinition"
      }],
      "routeOfAdministration" : [{
        "code" : {
          "coding" : [{
            "system" : "https://spor.ema.europa.eu/v1/lists/100000073345",
            "code" : "100000073600",
            "display" : "Intramuscular use"
          },
          {
            "system" : "https://spor.ema.europa.eu/v1/lists/100000073345",
            "code" : "100000073611",
            "display" : "Intravenous use"
          }]
        }
      }]
    }
  },
  {
    "fullUrl" : "https://hl7-eu.github.io/unicom-ig/branches/mpd-r4b/PackagedProductDefinition-CefuroximStragen-1-5g-Powder-SE-IS-PackagedProductDefinition",
    "resource" : {
      "resourceType" : "PackagedProductDefinition",
      "id" : "CefuroximStragen-1-5g-Powder-SE-IS-PackagedProductDefinition",
      "meta" : {
        "profile" : ["http://unicom-project.eu/fhir/StructureDefinition/PPLPackagedProductDefinition"]
      },
      "text" : {
        "status" : "generated",
        "div" : "<div xmlns=\"http://www.w3.org/1999/xhtml\"><a name=\"PackagedProductDefinition_CefuroximStragen-1-5g-Powder-SE-IS-PackagedProductDefinition\"> </a><p class=\"res-header-id\"><b>Generated Narrative: PackagedProductDefinition CefuroximStragen-1-5g-Powder-SE-IS-PackagedProductDefinition</b></p><a name=\"CefuroximStragen-1-5g-Powder-SE-IS-PackagedProductDefinition\"> </a><a name=\"hcCefuroximStragen-1-5g-Powder-SE-IS-PackagedProductDefinition\"> </a><a name=\"CefuroximStragen-1-5g-Powder-SE-IS-PackagedProductDefinition-en-US\"> </a><p><b>identifier</b>: <code>http://ema.europa.eu/example/pcid</code>/?ngen-9?</p><p><b>packageFor</b>: <a href=\"Bundle-003-CefuroximStragen-1-5g-Powder-SE-FullProduct.html#MedicinalProductDefinition_CefuroximStragen-1-5g-Powder-SE-IS-MedicinalProductDefinition\">Bundle: type = collection</a></p><p><b>containedItemQuantity</b>: 10 Vial<span style=\"background: LightGoldenRodYellow\"> (Details: Unit of Presentation EMA  code200000002158 = 'Vial')</span></p><p><b>description</b>: </p><div><p>Injektionsflaska, 10 st (10 x 1,5 g)</p>\n</div><h3>MarketingStatuses</h3><table class=\"grid\"><tr><td style=\"display: none\">-</td><td><b>Country</b></td><td><b>Status</b></td></tr><tr><td style=\"display: none\">*</td><td><span title=\"Codes:{https://spor.ema.europa.eu/v1/lists/100000000002 100000000535}\">Kingdom of Sweden</span></td><td><span title=\"Codes:{https://spor.ema.europa.eu/v1/lists/100000072052 100000072083}\">Marketed</span></td></tr></table><blockquote><p><b>packaging</b></p><p><b>type</b>: <span title=\"Codes:{https://spor.ema.europa.eu/v1/lists/100000073346 100000073498}\">Box</span></p><p><b>quantity</b>: 1</p><p><b>material</b>: <span title=\"Codes:{https://spor.ema.europa.eu/v1/lists/200000003199 200000003208}\">Plastic</span></p><blockquote><p><b>packaging</b></p></blockquote></blockquote></div>"
      },
      "identifier" : [{
        "system" : "http://ema.europa.eu/example/pcid"
      }],
      "packageFor" : [{
        "reference" : "MedicinalProductDefinition/CefuroximStragen-1-5g-Powder-SE-IS-MedicinalProductDefinition"
      }],
      "containedItemQuantity" : [{
        "value" : 10,
        "unit" : "Vial",
        "system" : "https://spor.ema.europa.eu/v1/lists/200000000014",
        "code" : "200000002158"
      }],
      "description" : "Injektionsflaska, 10 st (10 x 1,5 g)",
      "marketingStatus" : [{
        "country" : {
          "coding" : [{
            "system" : "https://spor.ema.europa.eu/v1/lists/100000000002",
            "code" : "100000000535",
            "display" : "Kingdom of Sweden"
          }]
        },
        "status" : {
          "coding" : [{
            "system" : "https://spor.ema.europa.eu/v1/lists/100000072052",
            "code" : "100000072083",
            "display" : "Marketed"
          }]
        }
      }],
      "packaging" : {
        "type" : {
          "coding" : [{
            "system" : "https://spor.ema.europa.eu/v1/lists/100000073346",
            "code" : "100000073498",
            "display" : "Box"
          }]
        },
        "quantity" : 1,
        "material" : [{
          "coding" : [{
            "system" : "https://spor.ema.europa.eu/v1/lists/200000003199",
            "code" : "200000003208",
            "display" : "Plastic"
          }]
        }],
        "packaging" : [{
          "type" : {
            "coding" : [{
              "system" : "https://spor.ema.europa.eu/v1/lists/100000073346",
              "code" : "100000073563",
              "display" : "Vial"
            }]
          },
          "quantity" : 10,
          "material" : [{
            "coding" : [{
              "system" : "https://spor.ema.europa.eu/v1/lists/200000003199",
              "code" : "200000003203",
              "display" : "Glass"
            }]
          }],
          "containedItem" : [{
            "item" : {
              "reference" : {
                "reference" : "ManufacturedItemDefinition/CefuroximStragen-1-5g-Powder-SE-IS-ManufacturedItemDefinition"
              }
            },
            "amount" : {
              "value" : 1,
              "unit" : "Vial",
              "system" : "https://spor.ema.europa.eu/v1/lists/200000000014",
              "code" : "200000002158"
            }
          }]
        }]
      }
    }
  },
  {
    "fullUrl" : "https://hl7-eu.github.io/unicom-ig/branches/mpd-r4b/ManufacturedItemDefinition-CefuroximStragen-1-5g-Powder-SE-IS-ManufacturedItemDefinition",
    "resource" : {
      "resourceType" : "ManufacturedItemDefinition",
      "id" : "CefuroximStragen-1-5g-Powder-SE-IS-ManufacturedItemDefinition",
      "meta" : {
        "profile" : ["http://unicom-project.eu/fhir/StructureDefinition/PPLManufacturedItemDefinition"]
      },
      "text" : {
        "status" : "generated",
        "div" : "<div xmlns=\"http://www.w3.org/1999/xhtml\"><a name=\"ManufacturedItemDefinition_CefuroximStragen-1-5g-Powder-SE-IS-ManufacturedItemDefinition\"> </a><p class=\"res-header-id\"><b>Generated Narrative: ManufacturedItemDefinition CefuroximStragen-1-5g-Powder-SE-IS-ManufacturedItemDefinition</b></p><a name=\"CefuroximStragen-1-5g-Powder-SE-IS-ManufacturedItemDefinition\"> </a><a name=\"hcCefuroximStragen-1-5g-Powder-SE-IS-ManufacturedItemDefinition\"> </a><a name=\"CefuroximStragen-1-5g-Powder-SE-IS-ManufacturedItemDefinition-en-US\"> </a><p><b>status</b>: Active</p><p><b>manufacturedDoseForm</b>: <span title=\"Codes:{https://spor.ema.europa.eu/v1/lists/200000000004 100000116186}\">Powder for solution for injection/infusion</span></p><p><b>unitOfPresentation</b>: <span title=\"Codes:{https://spor.ema.europa.eu/v1/lists/200000000014 200000002158}\">Vial</span></p></div>"
      },
      "status" : "active",
      "manufacturedDoseForm" : {
        "coding" : [{
          "system" : "https://spor.ema.europa.eu/v1/lists/200000000004",
          "code" : "100000116186",
          "display" : "Powder for solution for injection/infusion"
        }]
      },
      "unitOfPresentation" : {
        "coding" : [{
          "system" : "https://spor.ema.europa.eu/v1/lists/200000000014",
          "code" : "200000002158",
          "display" : "Vial"
        }]
      }
    }
  },
  {
    "fullUrl" : "https://hl7-eu.github.io/unicom-ig/branches/mpd-r4b/Ingredient-CefuroximStragen-1-5g-Powder-SE-IS-Ingredient",
    "resource" : {
      "resourceType" : "Ingredient",
      "id" : "CefuroximStragen-1-5g-Powder-SE-IS-Ingredient",
      "meta" : {
        "profile" : ["http://unicom-project.eu/fhir/StructureDefinition/PPLIngredient"]
      },
      "text" : {
        "status" : "generated",
        "div" : "<div xmlns=\"http://www.w3.org/1999/xhtml\"><a name=\"Ingredient_CefuroximStragen-1-5g-Powder-SE-IS-Ingredient\"> </a><p class=\"res-header-id\"><b>Generated Narrative: Ingredient CefuroximStragen-1-5g-Powder-SE-IS-Ingredient</b></p><a name=\"CefuroximStragen-1-5g-Powder-SE-IS-Ingredient\"> </a><a name=\"hcCefuroximStragen-1-5g-Powder-SE-IS-Ingredient\"> </a><a name=\"CefuroximStragen-1-5g-Powder-SE-IS-Ingredient-en-US\"> </a><p><b>status</b>: Active</p><p><b>for</b>: </p><ul><li><a href=\"Bundle-003-CefuroximStragen-1-5g-Powder-SE-FullProduct.html#MedicinalProductDefinition_CefuroximStragen-1-5g-Powder-SE-IS-MedicinalProductDefinition\">Bundle: type = collection</a></li><li><a href=\"Bundle-003-CefuroximStragen-1-5g-Powder-SE-FullProduct.html#ManufacturedItemDefinition_CefuroximStragen-1-5g-Powder-SE-IS-ManufacturedItemDefinition\">Bundle: type = collection</a></li><li><a href=\"Bundle-003-CefuroximStragen-1-5g-Powder-SE-FullProduct.html#AdministrableProductDefinition_CefuroximStragen-1-5g-Powder-SE-IS-AdminProdDef\">Bundle: type = collection</a></li></ul><p><b>role</b>: <span title=\"Codes:{https://spor.ema.europa.eu/v1/lists/100000072050 100000072072}\">Active</span></p><blockquote><p><b>substance</b></p><h3>Codes</h3><table class=\"grid\"><tr><td style=\"display: none\">-</td><td><b>Concept</b></td></tr><tr><td style=\"display: none\">*</td><td><span title=\"Codes:{https://spor.ema.europa.eu/v2/SubstanceDefinition 100000091436}\">cefuroxime sodium</span></td></tr></table><blockquote><p><b>strength</b></p><p><b>presentation</b>: 1.578 gram(s)<span style=\"background: LightGoldenRodYellow\"> (Details: Unit of Measurement EMA  code100000110654 = 'gram(s)')</span>/1 countable unit(s)<span style=\"background: LightGoldenRodYellow\"> (Details: Unit of Measurement EMA  code200000027120 = 'countable unit(s)')</span></p><blockquote><p><b>referenceStrength</b></p><h3>Substances</h3><table class=\"grid\"><tr><td style=\"display: none\">-</td><td><b>Concept</b></td></tr><tr><td style=\"display: none\">*</td><td><span title=\"Codes:{https://spor.ema.europa.eu/v2/SubstanceDefinition 100000092667}\">cefuroxime</span></td></tr></table><p><b>strength</b>: 1.5 gram(s)<span style=\"background: LightGoldenRodYellow\"> (Details: Unit of Measurement EMA  code100000110654 = 'gram(s)')</span>/1 countable unit(s)<span style=\"background: LightGoldenRodYellow\"> (Details: Unit of Measurement EMA  code200000027120 = 'countable unit(s)')</span></p></blockquote></blockquote></blockquote></div>"
      },
      "status" : "active",
      "for" : [{
        "reference" : "MedicinalProductDefinition/CefuroximStragen-1-5g-Powder-SE-IS-MedicinalProductDefinition"
      },
      {
        "reference" : "ManufacturedItemDefinition/CefuroximStragen-1-5g-Powder-SE-IS-ManufacturedItemDefinition"
      },
      {
        "reference" : "AdministrableProductDefinition/CefuroximStragen-1-5g-Powder-SE-IS-AdminProdDef"
      }],
      "role" : {
        "coding" : [{
          "system" : "https://spor.ema.europa.eu/v1/lists/100000072050",
          "code" : "100000072072",
          "display" : "Active"
        }]
      },
      "substance" : {
        "code" : {
          "concept" : {
            "coding" : [{
              "system" : "https://spor.ema.europa.eu/v2/SubstanceDefinition",
              "code" : "100000091436",
              "display" : "cefuroxime sodium"
            }]
          }
        },
        "strength" : [{
          "presentationRatio" : {
            "numerator" : {
              "value" : 1.578,
              "unit" : "gram(s)",
              "system" : "https://spor.ema.europa.eu/v1/lists/100000110633",
              "code" : "100000110654"
            },
            "denominator" : {
              "value" : 1,
              "unit" : "countable unit(s)",
              "system" : "https://spor.ema.europa.eu/v1/lists/100000110633",
              "code" : "200000027120"
            }
          },
          "referenceStrength" : [{
            "substance" : {
              "concept" : {
                "coding" : [{
                  "system" : "https://spor.ema.europa.eu/v2/SubstanceDefinition",
                  "code" : "100000092667",
                  "display" : "cefuroxime"
                }]
              }
            },
            "strengthRatio" : {
              "numerator" : {
                "value" : 1.5,
                "unit" : "gram(s)",
                "system" : "https://spor.ema.europa.eu/v1/lists/100000110633",
                "code" : "100000110654"
              },
              "denominator" : {
                "value" : 1,
                "unit" : "countable unit(s)",
                "system" : "https://spor.ema.europa.eu/v1/lists/100000110633",
                "code" : "200000027120"
              }
            }
          }]
        }]
      }
    }
  }]
}