<?xml version="1.0" encoding="UTF-8"?>

<Bundle xmlns="http://hl7.org/fhir">
  <id value="012-Panodil-500mg-SolutionInSachet-SE-FullProduct"/>
  <type value="collection"/>
  <entry>
    <fullUrl value="https://hl7-eu.github.io/unicom-ig/branches/mpd-r4b/MedicinalProductDefinition-Panodil500mgoralsolutionsachet-SE-PLC-MPD"/>
    <resource>
      <MedicinalProductDefinition>
        <id value="Panodil500mgoralsolutionsachet-SE-PLC-MPD"/>
        <meta>
          <profile value="http://unicom-project.eu/fhir/StructureDefinition/PPLMedicinalProductDefinition"/>
        </meta>
        <text>
          <status value="generated"/><div xmlns="http://www.w3.org/1999/xhtml"><a name="MedicinalProductDefinition_Panodil500mgoralsolutionsachet-SE-PLC-MPD"> </a><p class="res-header-id"><b>Generated Narrative: MedicinalProductDefinition Panodil500mgoralsolutionsachet-SE-PLC-MPD</b></p><a name="Panodil500mgoralsolutionsachet-SE-PLC-MPD"> </a><a name="hcPanodil500mgoralsolutionsachet-SE-PLC-MPD"> </a><a name="Panodil500mgoralsolutionsachet-SE-PLC-MPD-en-US"> </a><p><b>identifier</b>: <code>http://ema.europa.eu/fhir/eurdId</code>/2283</p><p><b>domain</b>: <span title="Codes:{https://spor.ema.europa.eu/v1/lists/100000000004 100000000012}">Human use</span></p><p><b>status</b>: <span title="Codes:{https://spor.ema.europa.eu/v1/lists/200000005003 200000005004}">Current</span></p><p><b>combinedPharmaceuticalDoseForm</b>: <span title="Codes:{https://spor.ema.europa.eu/v1/lists/200000000007 100000125752}">Powder for oral solution in sachet</span></p><p><b>indication</b>: </p><div><p>Panodil 500 mg pulver till oral lösning i dospåse används mot huvudvärk, tandvärk, feber vid förkylningssjukdomar, menstruationssmärtor, muskel- och ledvärk, som analgetikum vid reumatiska smärtor, hyperpyrexi. För vuxna och barn över 12 år.</p>
</div><p><b>legalStatusOfSupply</b>: <span title="Codes:{https://spor.ema.europa.eu/v1/lists/100000072051 100000072076}">Medicinal product not subject to medical prescription</span></p><p><b>classification</b>: <span title="Codes:{https://spor.ema.europa.eu/v1/lists/100000093533 100000097305}">Paracetamol</span>, <span title="Codes:{http://www.whocc.no/atc N02BE01}">Paracetamol</span></p><blockquote><p><b>name</b></p><p><b>productName</b>: Panodil 500 mg pulver till oral lösning i dospåse</p><blockquote><p><b>part</b></p><p><b>part</b>: Panodil</p><p><b>type</b>: <span title="Codes:{https://spor.ema.europa.eu/v1/lists/220000000000 220000000002}">Invented name part</span></p></blockquote><blockquote><p><b>part</b></p><p><b>part</b>: 500 mg</p><p><b>type</b>: <span title="Codes:{https://spor.ema.europa.eu/v1/lists/220000000000 220000000004}">Strength part</span></p></blockquote><blockquote><p><b>part</b></p><p><b>part</b>: pulver till oral lösning i dospåse</p><p><b>type</b>: <span title="Codes:{https://spor.ema.europa.eu/v1/lists/220000000000 220000000005}">Pharmaceutical dose form part</span></p></blockquote><h3>Usages</h3><table class="grid"><tr><td style="display: none">-</td><td><b>Country</b></td><td><b>Language</b></td></tr><tr><td style="display: none">*</td><td><span title="Codes:{https://spor.ema.europa.eu/v1/lists/100000000002 100000000535}">Kingdom of Sweden</span></td><td><span title="Codes:{urn:ietf:bcp:47 sv}">Swedish</span></td></tr></table></blockquote></div>
        </text>
        <identifier>
          <system value="http://ema.europa.eu/fhir/eurdId"/>
          <value value="2283"/>
        </identifier>
        <domain>
          <coding>
            <system value="https://spor.ema.europa.eu/v1/lists/100000000004"/>
            <code value="100000000012"/>
            <display value="Human use"/>
          </coding>
        </domain>
        <status>
          <coding>
            <system value="https://spor.ema.europa.eu/v1/lists/200000005003"/>
            <code value="200000005004"/>
            <display value="Current"/>
          </coding>
        </status>
        <combinedPharmaceuticalDoseForm>
          <coding>
            <system value="https://spor.ema.europa.eu/v1/lists/200000000007"/>
            <code value="100000125752"/>
            <display value="Powder for oral solution in sachet"/>
          </coding>
        </combinedPharmaceuticalDoseForm>
        <indication value="Panodil 500 mg pulver till oral lösning i dospåse används mot huvudvärk, tandvärk, feber vid förkylningssjukdomar, menstruationssmärtor, muskel- och ledvärk, som analgetikum vid reumatiska smärtor, hyperpyrexi. För vuxna och barn över 12 år."/>
        <legalStatusOfSupply>
          <coding>
            <system value="https://spor.ema.europa.eu/v1/lists/100000072051"/>
            <code value="100000072076"/>
            <display value="Medicinal product not subject to medical prescription"/>
          </coding>
        </legalStatusOfSupply>
        <classification>
          <coding>
            <system value="https://spor.ema.europa.eu/v1/lists/100000093533"/>
            <code value="100000097305"/>
            <display value="Paracetamol"/>
          </coding>
        </classification>
        <classification>
          <coding>
            <system value="http://www.whocc.no/atc"/>
            <code value="N02BE01"/>
            <display value="Paracetamol"/>
          </coding>
        </classification>
        <name>
          <productName value="Panodil 500 mg pulver till oral lösning i dospåse"/>
          <part>
            <part value="Panodil"/>
            <type>
              <coding>
                <system value="https://spor.ema.europa.eu/v1/lists/220000000000"/>
                <code value="220000000002"/>
                <display value="Invented name part"/>
              </coding>
            </type>
          </part>
          <part>
            <part value="500 mg"/>
            <type>
              <coding>
                <system value="https://spor.ema.europa.eu/v1/lists/220000000000"/>
                <code value="220000000004"/>
                <display value="Strength part"/>
              </coding>
            </type>
          </part>
          <part>
            <part value="pulver till oral lösning i dospåse"/>
            <type>
              <coding>
                <system value="https://spor.ema.europa.eu/v1/lists/220000000000"/>
                <code value="220000000005"/>
                <display value="Pharmaceutical dose form part"/>
              </coding>
            </type>
          </part>
          <usage>
            <country>
              <coding>
                <system value="https://spor.ema.europa.eu/v1/lists/100000000002"/>
                <code value="100000000535"/>
                <display value="Kingdom of Sweden"/>
              </coding>
            </country>
            <language>
              <coding>
                <system value="urn:ietf:bcp:47"/>
                <code value="sv"/>
                <display value="Swedish"/>
              </coding>
            </language>
          </usage>
        </name>
      </MedicinalProductDefinition>
    </resource>
  </entry>
  <entry>
    <fullUrl value="https://hl7-eu.github.io/unicom-ig/branches/mpd-r4b/RegulatedAuthorization-Panodil500mgoralsolutionsachet-SE-PLC-RegulatedAuthorization"/>
    <resource>
      <RegulatedAuthorization>
        <id value="Panodil500mgoralsolutionsachet-SE-PLC-RegulatedAuthorization"/>
        <meta>
          <profile value="http://unicom-project.eu/fhir/StructureDefinition/PPLRegulatedAuthorization"/>
        </meta>
        <text>
          <status value="generated"/><div xmlns="http://www.w3.org/1999/xhtml"><a name="RegulatedAuthorization_Panodil500mgoralsolutionsachet-SE-PLC-RegulatedAuthorization"> </a><p class="res-header-id"><b>Generated Narrative: RegulatedAuthorization Panodil500mgoralsolutionsachet-SE-PLC-RegulatedAuthorization</b></p><a name="Panodil500mgoralsolutionsachet-SE-PLC-RegulatedAuthorization"> </a><a name="hcPanodil500mgoralsolutionsachet-SE-PLC-RegulatedAuthorization"> </a><a name="Panodil500mgoralsolutionsachet-SE-PLC-RegulatedAuthorization-en-US"> </a><p><b>identifier</b>: 12391</p><p><b>subject</b>: <a href="Bundle-012-Panodil-500mg-SolutionInSachet-SE-FullProduct.html#MedicinalProductDefinition_Panodil500mgoralsolutionsachet-SE-PLC-MPD">Bundle: type = collection</a></p><p><b>type</b>: <span title="Codes:{https://spor.ema.europa.eu/v1/lists/220000000060 220000000061}">Marketing Authorisation</span></p><p><b>region</b>: <span title="Codes:{https://spor.ema.europa.eu/v1/lists/100000000002 100000000535}">Kingdom of Sweden</span></p><p><b>status</b>: <span title="Codes:{https://spor.ema.europa.eu/v1/lists/100000072049 100000072099}">Valid</span></p><p><b>statusDate</b>: 1994-10-28</p><p><b>holder</b>: <a href="Bundle-012-Panodil-500mg-SolutionInSachet-SE-FullProduct.html#Organization_LOC-100005555-PerrigoSverigeAB">Bundle: type = collection</a></p></div>
        </text>
        <identifier>
          <value value="12391"/>
        </identifier>
        <subject>
          <reference value="MedicinalProductDefinition/Panodil500mgoralsolutionsachet-SE-PLC-MPD"/>
        </subject>
        <type>
          <coding>
            <system value="https://spor.ema.europa.eu/v1/lists/220000000060"/>
            <code value="220000000061"/>
            <display value="Marketing Authorisation"/>
          </coding>
        </type>
        <region>
          <coding>
            <system value="https://spor.ema.europa.eu/v1/lists/100000000002"/>
            <code value="100000000535"/>
            <display value="Kingdom of Sweden"/>
          </coding>
        </region>
        <status>
          <coding>
            <system value="https://spor.ema.europa.eu/v1/lists/100000072049"/>
            <code value="100000072099"/>
            <display value="Valid"/>
          </coding>
        </status>
        <statusDate value="1994-10-28"/>
        <holder>
          <reference value="Organization/LOC-100005555-PerrigoSverigeAB"/>
        </holder>
      </RegulatedAuthorization>
    </resource>
  </entry>
  <entry>
    <fullUrl value="https://hl7-eu.github.io/unicom-ig/branches/mpd-r4b/Organization-LOC-100005555-PerrigoSverigeAB"/>
    <resource>
      <Organization>
        <id value="LOC-100005555-PerrigoSverigeAB"/>
        <meta>
          <profile value="http://unicom-project.eu/fhir/StructureDefinition/PPLOrganization"/>
        </meta>
        <text>
          <status value="generated"/><div xmlns="http://www.w3.org/1999/xhtml"><a name="Organization_LOC-100005555-PerrigoSverigeAB"> </a><p class="res-header-id"><b>Generated Narrative: Organization LOC-100005555-PerrigoSverigeAB</b></p><a name="LOC-100005555-PerrigoSverigeAB"> </a><a name="hcLOC-100005555-PerrigoSverigeAB"> </a><a name="LOC-100005555-PerrigoSverigeAB-en-US"> </a><p><b>identifier</b>: <code>https://spor.ema.europa.eu/v1/locations</code>/LOC-100005555</p><p><b>name</b>: Perrigo Sverige AB</p></div>
        </text>
        <identifier>
          <system value="https://spor.ema.europa.eu/v1/locations"/>
          <value value="LOC-100005555"/>
        </identifier>
        <name value="Perrigo Sverige AB"/>
      </Organization>
    </resource>
  </entry>
  <entry>
    <fullUrl value="https://hl7-eu.github.io/unicom-ig/branches/mpd-r4b/AdministrableProductDefinition-Panodil500mgoralsolutionsachet-SE-PLC-APD"/>
    <resource>
      <AdministrableProductDefinition>
        <id value="Panodil500mgoralsolutionsachet-SE-PLC-APD"/>
        <meta>
          <profile value="http://unicom-project.eu/fhir/StructureDefinition/PPLAdministrableProductDefinition"/>
        </meta>
        <text>
          <status value="generated"/><div xmlns="http://www.w3.org/1999/xhtml"><a name="AdministrableProductDefinition_Panodil500mgoralsolutionsachet-SE-PLC-APD"> </a><p class="res-header-id"><b>Generated Narrative: AdministrableProductDefinition Panodil500mgoralsolutionsachet-SE-PLC-APD</b></p><a name="Panodil500mgoralsolutionsachet-SE-PLC-APD"> </a><a name="hcPanodil500mgoralsolutionsachet-SE-PLC-APD"> </a><a name="Panodil500mgoralsolutionsachet-SE-PLC-APD-en-US"> </a><p><b>status</b>: Active</p><p><b>formOf</b>: <a href="Bundle-012-Panodil-500mg-SolutionInSachet-SE-FullProduct.html#MedicinalProductDefinition_Panodil500mgoralsolutionsachet-SE-PLC-MPD">Bundle: type = collection</a></p><p><b>administrableDoseForm</b>: <span title="Codes:{https://spor.ema.europa.eu/v1/lists/200000000004 100000073646}">Oral solution</span></p><p><b>producedFrom</b>: <a href="Bundle-012-Panodil-500mg-SolutionInSachet-SE-FullProduct.html#ManufacturedItemDefinition_Panodil500mgoralsolutionsachet-SE-PLC-MID">Bundle: type = collection</a></p><h3>RouteOfAdministrations</h3><table class="grid"><tr><td style="display: none">-</td><td><b>Code</b></td></tr><tr><td style="display: none">*</td><td><span title="Codes:{https://spor.ema.europa.eu/v1/lists/100000073345 100000073619}">Oral use</span></td></tr></table></div>
        </text>
        <status value="active"/>
        <formOf>
          <reference value="MedicinalProductDefinition/Panodil500mgoralsolutionsachet-SE-PLC-MPD"/>
        </formOf>
        <administrableDoseForm>
          <coding>
            <system value="https://spor.ema.europa.eu/v1/lists/200000000004"/>
            <code value="100000073646"/>
            <display value="Oral solution"/>
          </coding>
        </administrableDoseForm>
        <producedFrom>
          <reference value="ManufacturedItemDefinition/Panodil500mgoralsolutionsachet-SE-PLC-MID"/>
        </producedFrom>
        <routeOfAdministration>
          <code>
            <coding>
              <system value="https://spor.ema.europa.eu/v1/lists/100000073345"/>
              <code value="100000073619"/>
              <display value="Oral use"/>
            </coding>
          </code>
        </routeOfAdministration>
      </AdministrableProductDefinition>
    </resource>
  </entry>
  <entry>
    <fullUrl value="https://hl7-eu.github.io/unicom-ig/branches/mpd-r4b/PackagedProductDefinition-Panodil500mgoralsolutionsachet-SE-PLC-PackageProductDef"/>
    <resource>
      <PackagedProductDefinition>
        <id value="Panodil500mgoralsolutionsachet-SE-PLC-PackageProductDef"/>
        <meta>
          <profile value="http://unicom-project.eu/fhir/StructureDefinition/PPLPackagedProductDefinition"/>
        </meta>
        <text>
          <status value="generated"/><div xmlns="http://www.w3.org/1999/xhtml"><a name="PackagedProductDefinition_Panodil500mgoralsolutionsachet-SE-PLC-PackageProductDef"> </a><p class="res-header-id"><b>Generated Narrative: PackagedProductDefinition Panodil500mgoralsolutionsachet-SE-PLC-PackageProductDef</b></p><a name="Panodil500mgoralsolutionsachet-SE-PLC-PackageProductDef"> </a><a name="hcPanodil500mgoralsolutionsachet-SE-PLC-PackageProductDef"> </a><a name="Panodil500mgoralsolutionsachet-SE-PLC-PackageProductDef-en-US"> </a><p><b>identifier</b>: <code>http://ema.europa.eu/example/pcid</code>/?ngen-9?</p><p><b>packageFor</b>: <a href="Bundle-012-Panodil-500mg-SolutionInSachet-SE-FullProduct.html#MedicinalProductDefinition_Panodil500mgoralsolutionsachet-SE-PLC-MPD">Bundle: type = collection</a></p><p><b>containedItemQuantity</b>: 12 Sachet<span style="background: LightGoldenRodYellow"> (Details: Unit of Presentation EMA  code200000002143 = 'Sachet')</span></p><p><b>description</b>: </p><div><p>Dospåsar, 12 st</p>
</div><h3>MarketingStatuses</h3><table class="grid"><tr><td style="display: none">-</td><td><b>Country</b></td><td><b>Status</b></td></tr><tr><td style="display: none">*</td><td><span title="Codes:{https://spor.ema.europa.eu/v1/lists/100000000002 100000000535}">Kingdom of Sweden</span></td><td><span title="Codes:{https://spor.ema.europa.eu/v1/lists/100000072052 100000072083}">Marketed</span></td></tr></table><blockquote><p><b>packaging</b></p><p><b>type</b>: <span title="Codes:{https://spor.ema.europa.eu/v1/lists/100000073346 100000073498}">Box</span></p><p><b>quantity</b>: 1</p><p><b>material</b>: <span title="Codes:{https://spor.ema.europa.eu/v1/lists/200000003199 200000003529}">Cardboard</span></p><blockquote><p><b>containedItem</b></p><h3>Items</h3><table class="grid"><tr><td style="display: none">-</td><td><b>Reference</b></td></tr><tr><td style="display: none">*</td><td><a href="Bundle-012-Panodil-500mg-SolutionInSachet-SE-FullProduct.html#ManufacturedItemDefinition_Panodil500mgoralsolutionsachet-SE-PLC-MID">Bundle: type = collection</a></td></tr></table><p><b>amount</b>: 12 Sachet<span style="background: LightGoldenRodYellow"> (Details: Unit of Presentation EMA  code200000002143 = 'Sachet')</span></p></blockquote></blockquote></div>
        </text>
        <identifier>
          <system value="http://ema.europa.eu/example/pcid"/>
        </identifier>
        <packageFor>
          <reference value="MedicinalProductDefinition/Panodil500mgoralsolutionsachet-SE-PLC-MPD"/>
        </packageFor>
        <containedItemQuantity>
          <value value="12"/>
          <unit value="Sachet"/>
          <system value="https://spor.ema.europa.eu/v1/lists/200000000014"/>
          <code value="200000002143"/>
        </containedItemQuantity>
        <description value="Dospåsar, 12 st"/>
        <marketingStatus>
          <country>
            <coding>
              <system value="https://spor.ema.europa.eu/v1/lists/100000000002"/>
              <code value="100000000535"/>
              <display value="Kingdom of Sweden"/>
            </coding>
          </country>
          <status>
            <coding>
              <system value="https://spor.ema.europa.eu/v1/lists/100000072052"/>
              <code value="100000072083"/>
              <display value="Marketed"/>
            </coding>
          </status>
        </marketingStatus>
        <packaging>
          <type>
            <coding>
              <system value="https://spor.ema.europa.eu/v1/lists/100000073346"/>
              <code value="100000073498"/>
              <display value="Box"/>
            </coding>
          </type>
          <quantity value="1"/>
          <material>
            <coding>
              <system value="https://spor.ema.europa.eu/v1/lists/200000003199"/>
              <code value="200000003529"/>
              <display value="Cardboard"/>
            </coding>
          </material>
          <containedItem>
            <item>
              <reference>
                <reference value="ManufacturedItemDefinition/Panodil500mgoralsolutionsachet-SE-PLC-MID"/>
              </reference>
            </item>
            <amount>
              <value value="12"/>
              <unit value="Sachet"/>
              <system value="https://spor.ema.europa.eu/v1/lists/200000000014"/>
              <code value="200000002143"/>
            </amount>
          </containedItem>
        </packaging>
      </PackagedProductDefinition>
    </resource>
  </entry>
  <entry>
    <fullUrl value="https://hl7-eu.github.io/unicom-ig/branches/mpd-r4b/ManufacturedItemDefinition-Panodil500mgoralsolutionsachet-SE-PLC-MID"/>
    <resource>
      <ManufacturedItemDefinition>
        <id value="Panodil500mgoralsolutionsachet-SE-PLC-MID"/>
        <meta>
          <profile value="http://unicom-project.eu/fhir/StructureDefinition/PPLManufacturedItemDefinition"/>
        </meta>
        <text>
          <status value="generated"/><div xmlns="http://www.w3.org/1999/xhtml"><a name="ManufacturedItemDefinition_Panodil500mgoralsolutionsachet-SE-PLC-MID"> </a><p class="res-header-id"><b>Generated Narrative: ManufacturedItemDefinition Panodil500mgoralsolutionsachet-SE-PLC-MID</b></p><a name="Panodil500mgoralsolutionsachet-SE-PLC-MID"> </a><a name="hcPanodil500mgoralsolutionsachet-SE-PLC-MID"> </a><a name="Panodil500mgoralsolutionsachet-SE-PLC-MID-en-US"> </a><p><b>status</b>: Active</p><p><b>manufacturedDoseForm</b>: <span title="Codes:{https://spor.ema.europa.eu/v1/lists/200000000004 100000073364}">Powder for oral solution</span></p><p><b>unitOfPresentation</b>: <span title="Codes:{https://spor.ema.europa.eu/v1/lists/200000000014 200000002143}">Sachet</span></p></div>
        </text>
        <status value="active"/>
        <manufacturedDoseForm>
          <coding>
            <system value="https://spor.ema.europa.eu/v1/lists/200000000004"/>
            <code value="100000073364"/>
            <display value="Powder for oral solution"/>
          </coding>
        </manufacturedDoseForm>
        <unitOfPresentation>
          <coding>
            <system value="https://spor.ema.europa.eu/v1/lists/200000000014"/>
            <code value="200000002143"/>
            <display value="Sachet"/>
          </coding>
        </unitOfPresentation>
      </ManufacturedItemDefinition>
    </resource>
  </entry>
  <entry>
    <fullUrl value="https://hl7-eu.github.io/unicom-ig/branches/mpd-r4b/Ingredient-Panodil500mgoralsolutionsachet-SE-PLC-Ingredient"/>
    <resource>
      <Ingredient>
        <id value="Panodil500mgoralsolutionsachet-SE-PLC-Ingredient"/>
        <meta>
          <profile value="http://unicom-project.eu/fhir/StructureDefinition/PPLIngredient"/>
        </meta>
        <text>
          <status value="generated"/><div xmlns="http://www.w3.org/1999/xhtml"><a name="Ingredient_Panodil500mgoralsolutionsachet-SE-PLC-Ingredient"> </a><p class="res-header-id"><b>Generated Narrative: Ingredient Panodil500mgoralsolutionsachet-SE-PLC-Ingredient</b></p><a name="Panodil500mgoralsolutionsachet-SE-PLC-Ingredient"> </a><a name="hcPanodil500mgoralsolutionsachet-SE-PLC-Ingredient"> </a><a name="Panodil500mgoralsolutionsachet-SE-PLC-Ingredient-en-US"> </a><p><b>status</b>: Active</p><p><b>for</b>: </p><ul><li><a href="Bundle-012-Panodil-500mg-SolutionInSachet-SE-FullProduct.html#MedicinalProductDefinition_Panodil500mgoralsolutionsachet-SE-PLC-MPD">Bundle: type = collection</a></li><li><a href="Bundle-012-Panodil-500mg-SolutionInSachet-SE-FullProduct.html#ManufacturedItemDefinition_Panodil500mgoralsolutionsachet-SE-PLC-MID">Bundle: type = collection</a></li><li><a href="Bundle-012-Panodil-500mg-SolutionInSachet-SE-FullProduct.html#AdministrableProductDefinition_Panodil500mgoralsolutionsachet-SE-PLC-APD">Bundle: type = collection</a></li></ul><p><b>role</b>: <span title="Codes:{https://spor.ema.europa.eu/v1/lists/100000072050 100000072072}">Active</span></p><blockquote><p><b>substance</b></p><h3>Codes</h3><table class="grid"><tr><td style="display: none">-</td><td><b>Concept</b></td></tr><tr><td style="display: none">*</td><td><span title="Codes:{https://spor.ema.europa.eu/v2/SubstanceDefinition 100000090270}">Paracetamol</span></td></tr></table><blockquote><p><b>strength</b></p><p><b>presentation</b>: 500 milligram(s)<span style="background: LightGoldenRodYellow"> (Details: Unit of Measurement EMA  code100000110655 = 'milligram(s)')</span>/1 Sachet<span style="background: LightGoldenRodYellow"> (Details: Unit of Presentation EMA  code200000002143 = 'Sachet')</span></p><blockquote><p><b>referenceStrength</b></p><h3>Substances</h3><table class="grid"><tr><td style="display: none">-</td><td><b>Concept</b></td></tr><tr><td style="display: none">*</td><td><span title="Codes:{https://spor.ema.europa.eu/v2/SubstanceDefinition 100000090270}">Paracetamol</span></td></tr></table><p><b>strength</b>: 500 milligram(s)<span style="background: LightGoldenRodYellow"> (Details: Unit of Measurement EMA  code100000110655 = 'milligram(s)')</span>/1 Sachet<span style="background: LightGoldenRodYellow"> (Details: Unit of Presentation EMA  code200000002143 = 'Sachet')</span></p></blockquote></blockquote></blockquote></div>
        </text>
        <status value="active"/>
        <for>
          <reference value="MedicinalProductDefinition/Panodil500mgoralsolutionsachet-SE-PLC-MPD"/>
        </for>
        <for>
          <reference value="ManufacturedItemDefinition/Panodil500mgoralsolutionsachet-SE-PLC-MID"/>
        </for>
        <for>
          <reference value="AdministrableProductDefinition/Panodil500mgoralsolutionsachet-SE-PLC-APD"/>
        </for>
        <role>
          <coding>
            <system value="https://spor.ema.europa.eu/v1/lists/100000072050"/>
            <code value="100000072072"/>
            <display value="Active"/>
          </coding>
        </role>
        <substance>
          <code>
            <concept>
              <coding>
                <system value="https://spor.ema.europa.eu/v2/SubstanceDefinition"/>
                <code value="100000090270"/>
                <display value="Paracetamol"/>
              </coding>
            </concept>
          </code>
          <strength>
            <presentationRatio>
              <numerator>
                <value value="500"/>
                <unit value="milligram(s)"/>
                <system value="https://spor.ema.europa.eu/v1/lists/100000110633"/>
                <code value="100000110655"/>
              </numerator>
              <denominator>
                <value value="1"/>
                <unit value="Sachet"/>
                <system value="https://spor.ema.europa.eu/v1/lists/200000000014"/>
                <code value="200000002143"/>
              </denominator>
            </presentationRatio>
            <referenceStrength>
              <substance>
                <concept>
                  <coding>
                    <system value="https://spor.ema.europa.eu/v2/SubstanceDefinition"/>
                    <code value="100000090270"/>
                    <display value="Paracetamol"/>
                  </coding>
                </concept>
              </substance>
              <strengthRatio>
                <numerator>
                  <value value="500"/>
                  <unit value="milligram(s)"/>
                  <system value="https://spor.ema.europa.eu/v1/lists/100000110633"/>
                  <code value="100000110655"/>
                </numerator>
                <denominator>
                  <value value="1"/>
                  <unit value="Sachet"/>
                  <system value="https://spor.ema.europa.eu/v1/lists/200000000014"/>
                  <code value="200000002143"/>
                </denominator>
              </strengthRatio>
            </referenceStrength>
          </strength>
        </substance>
      </Ingredient>
    </resource>
  </entry>
</Bundle>