<?xml version="1.0" encoding="UTF-8"?>

<Bundle xmlns="http://hl7.org/fhir">
  <id value="009-Paracetamol-Kabi10mg-1ml-EE-FullProduct"/>
  <type value="collection"/>
  <entry>
    <fullUrl value="https://hl7-eu.github.io/unicom-ig/branches/mpd-r4b/MedicinalProductDefinition-Paracetamol-Kabi-10mg-1ml-solinj-EE-MPD"/>
    <resource>
      <MedicinalProductDefinition>
        <id value="Paracetamol-Kabi-10mg-1ml-solinj-EE-MPD"/>
        <meta>
          <profile value="http://unicom-project.eu/fhir/StructureDefinition/PPLMedicinalProductDefinition"/>
        </meta>
        <text>
          <status value="generated"/><div xmlns="http://www.w3.org/1999/xhtml"><a name="MedicinalProductDefinition_Paracetamol-Kabi-10mg-1ml-solinj-EE-MPD"> </a><p class="res-header-id"><b>Generated Narrative: MedicinalProductDefinition Paracetamol-Kabi-10mg-1ml-solinj-EE-MPD</b></p><a name="Paracetamol-Kabi-10mg-1ml-solinj-EE-MPD"> </a><a name="hcParacetamol-Kabi-10mg-1ml-solinj-EE-MPD"> </a><a name="Paracetamol-Kabi-10mg-1ml-solinj-EE-MPD-en-US"> </a><p><b>identifier</b>: <code>http://ema.europa.eu/fhir/mpId</code>/EE-100008123-25101, <code>http://ema.europa.eu/fhir/pmsId</code>/0000000030</p><p><b>domain</b>: <span title="Codes:{https://spor.ema.europa.eu/v1/lists/100000000004 100000000012}">Human use</span></p><p><b>status</b>: <span title="Codes:{https://spor.ema.europa.eu/v1/lists/200000005003 200000005004}">Current</span></p><p><b>combinedPharmaceuticalDoseForm</b>: <span title="Codes:{https://spor.ema.europa.eu/v1/lists/200000000004 100000073870}">Solution for infusion</span></p><p><b>legalStatusOfSupply</b>: <span title="Codes:{https://spor.ema.europa.eu/v1/lists/100000072051 100000072084}">Medicinal Product subject to medical prescription</span></p><p><b>classification</b>: <span title="Codes:{https://spor.ema.europa.eu/v1/lists/100000093533 100000097305}">Paracetamol</span>, <span title="Codes:{http://www.whocc.no/atc N02BE01}">Paracetamol</span></p><blockquote><p><b>name</b></p><p><b>productName</b>: Paracetamol Kabi 10 mg/ml, infusioonilahus</p><blockquote><p><b>part</b></p><p><b>part</b>: Paracetamol Kabi</p><p><b>type</b>: <span title="Codes:{https://spor.ema.europa.eu/v1/lists/220000000000 220000000002}">Invented name part</span></p></blockquote><blockquote><p><b>part</b></p><p><b>part</b>: 10 mg/ml</p><p><b>type</b>: <span title="Codes:{https://spor.ema.europa.eu/v1/lists/220000000000 220000000004}">Strength part</span></p></blockquote><blockquote><p><b>part</b></p><p><b>part</b>: infusioonilahus</p><p><b>type</b>: <span title="Codes:{https://spor.ema.europa.eu/v1/lists/220000000000 220000000005}">Pharmaceutical dose form part</span></p></blockquote><h3>Usages</h3><table class="grid"><tr><td style="display: none">-</td><td><b>Country</b></td><td><b>Language</b></td></tr><tr><td style="display: none">*</td><td><span title="Codes:{https://spor.ema.europa.eu/v1/lists/100000000002 100000000388}">Republic of Estonia</span></td><td><span title="Codes:{urn:ietf:bcp:47 et}">Estonian</span></td></tr></table></blockquote></div>
        </text>
        <identifier>
          <system value="http://ema.europa.eu/fhir/mpId"/>
          <value value="EE-100008123-25101"/>
        </identifier>
        <identifier>
          <system value="http://ema.europa.eu/fhir/pmsId"/>
          <value value="0000000030"/>
        </identifier>
        <domain>
          <coding>
            <system value="https://spor.ema.europa.eu/v1/lists/100000000004"/>
            <code value="100000000012"/>
            <display value="Human use"/>
          </coding>
        </domain>
        <status>
          <coding>
            <system value="https://spor.ema.europa.eu/v1/lists/200000005003"/>
            <code value="200000005004"/>
            <display value="Current"/>
          </coding>
        </status>
        <combinedPharmaceuticalDoseForm>
          <coding>
            <system value="https://spor.ema.europa.eu/v1/lists/200000000004"/>
            <code value="100000073870"/>
            <display value="Solution for infusion"/>
          </coding>
        </combinedPharmaceuticalDoseForm>
        <legalStatusOfSupply>
          <coding>
            <system value="https://spor.ema.europa.eu/v1/lists/100000072051"/>
            <code value="100000072084"/>
            <display value="Medicinal Product subject to medical prescription"/>
          </coding>
        </legalStatusOfSupply>
        <classification>
          <coding>
            <system value="https://spor.ema.europa.eu/v1/lists/100000093533"/>
            <code value="100000097305"/>
            <display value="Paracetamol"/>
          </coding>
        </classification>
        <classification>
          <coding>
            <system value="http://www.whocc.no/atc"/>
            <code value="N02BE01"/>
            <display value="Paracetamol"/>
          </coding>
        </classification>
        <name>
          <productName value="Paracetamol Kabi 10 mg/ml, infusioonilahus"/>
          <part>
            <part value="Paracetamol Kabi"/>
            <type>
              <coding>
                <system value="https://spor.ema.europa.eu/v1/lists/220000000000"/>
                <code value="220000000002"/>
                <display value="Invented name part"/>
              </coding>
            </type>
          </part>
          <part>
            <part value="10 mg/ml"/>
            <type>
              <coding>
                <system value="https://spor.ema.europa.eu/v1/lists/220000000000"/>
                <code value="220000000004"/>
                <display value="Strength part"/>
              </coding>
            </type>
          </part>
          <part>
            <part value="infusioonilahus"/>
            <type>
              <coding>
                <system value="https://spor.ema.europa.eu/v1/lists/220000000000"/>
                <code value="220000000005"/>
                <display value="Pharmaceutical dose form part"/>
              </coding>
            </type>
          </part>
          <usage>
            <country>
              <coding>
                <system value="https://spor.ema.europa.eu/v1/lists/100000000002"/>
                <code value="100000000388"/>
                <display value="Republic of Estonia"/>
              </coding>
            </country>
            <language>
              <coding>
                <system value="urn:ietf:bcp:47"/>
                <code value="et"/>
                <display value="Estonian"/>
              </coding>
            </language>
          </usage>
        </name>
      </MedicinalProductDefinition>
    </resource>
  </entry>
  <entry>
    <fullUrl value="https://hl7-eu.github.io/unicom-ig/branches/mpd-r4b/RegulatedAuthorization-Paracetamol-Kabi-10mg-1ml-solinj-EE-RA"/>
    <resource>
      <RegulatedAuthorization>
        <id value="Paracetamol-Kabi-10mg-1ml-solinj-EE-RA"/>
        <meta>
          <profile value="http://unicom-project.eu/fhir/StructureDefinition/PPLRegulatedAuthorization"/>
        </meta>
        <text>
          <status value="generated"/><div xmlns="http://www.w3.org/1999/xhtml"><a name="RegulatedAuthorization_Paracetamol-Kabi-10mg-1ml-solinj-EE-RA"> </a><p class="res-header-id"><b>Generated Narrative: RegulatedAuthorization Paracetamol-Kabi-10mg-1ml-solinj-EE-RA</b></p><a name="Paracetamol-Kabi-10mg-1ml-solinj-EE-RA"> </a><a name="hcParacetamol-Kabi-10mg-1ml-solinj-EE-RA"> </a><a name="Paracetamol-Kabi-10mg-1ml-solinj-EE-RA-en-US"> </a><p><b>identifier</b>: 715010</p><p><b>subject</b>: <a href="Bundle-009-Paracetamol-Kabi10mg-1ml-EE-FullProduct.html#MedicinalProductDefinition_Paracetamol-Kabi-10mg-1ml-solinj-EE-MPD">Bundle: type = collection</a></p><p><b>type</b>: <span title="Codes:{https://spor.ema.europa.eu/v1/lists/220000000060 220000000061}">Marketing Authorisation</span></p><p><b>region</b>: <span title="Codes:{https://spor.ema.europa.eu/v1/lists/100000000002 100000000388}">Republic of Estonia</span></p><p><b>status</b>: <span title="Codes:{https://spor.ema.europa.eu/v1/lists/100000072049 200000017708}">Valid - Renewed/Varied</span></p><p><b>statusDate</b>: 2015-09-17</p><p><b>holder</b>: <a href="Bundle-009-Paracetamol-Kabi10mg-1ml-EE-FullProduct.html#Organization_LOC-100008123-FreseniusKabiPolska">Bundle: type = collection</a></p></div>
        </text>
        <identifier>
          <value value="715010"/>
        </identifier>
        <subject>
          <reference value="MedicinalProductDefinition/Paracetamol-Kabi-10mg-1ml-solinj-EE-MPD"/>
        </subject>
        <type>
          <coding>
            <system value="https://spor.ema.europa.eu/v1/lists/220000000060"/>
            <code value="220000000061"/>
            <display value="Marketing Authorisation"/>
          </coding>
        </type>
        <region>
          <coding>
            <system value="https://spor.ema.europa.eu/v1/lists/100000000002"/>
            <code value="100000000388"/>
            <display value="Republic of Estonia"/>
          </coding>
        </region>
        <status>
          <coding>
            <system value="https://spor.ema.europa.eu/v1/lists/100000072049"/>
            <code value="200000017708"/>
            <display value="Valid - Renewed/Varied"/>
          </coding>
        </status>
        <statusDate value="2015-09-17"/>
        <holder>
          <reference value="Organization/LOC-100008123-FreseniusKabiPolska"/>
        </holder>
      </RegulatedAuthorization>
    </resource>
  </entry>
  <entry>
    <fullUrl value="https://hl7-eu.github.io/unicom-ig/branches/mpd-r4b/Organization-LOC-100008123-FreseniusKabiPolska"/>
    <resource>
      <Organization>
        <id value="LOC-100008123-FreseniusKabiPolska"/>
        <meta>
          <profile value="http://unicom-project.eu/fhir/StructureDefinition/PPLOrganization"/>
        </meta>
        <text>
          <status value="generated"/><div xmlns="http://www.w3.org/1999/xhtml"><a name="Organization_LOC-100008123-FreseniusKabiPolska"> </a><p class="res-header-id"><b>Generated Narrative: Organization LOC-100008123-FreseniusKabiPolska</b></p><a name="LOC-100008123-FreseniusKabiPolska"> </a><a name="hcLOC-100008123-FreseniusKabiPolska"> </a><a name="LOC-100008123-FreseniusKabiPolska-en-US"> </a><p><b>identifier</b>: <code>https://spor.ema.europa.eu/v1/locations</code>/LOC-100008123</p><p><b>name</b>: Fresenius Kabi Polska Sp. z o.o.</p></div>
        </text>
        <identifier>
          <system value="https://spor.ema.europa.eu/v1/locations"/>
          <value value="LOC-100008123"/>
        </identifier>
        <name value="Fresenius Kabi Polska Sp. z o.o."/>
      </Organization>
    </resource>
  </entry>
  <entry>
    <fullUrl value="https://hl7-eu.github.io/unicom-ig/branches/mpd-r4b/AdministrableProductDefinition-Paracetamol-Kabi-10mg-1ml-solinj-EE-APD"/>
    <resource>
      <AdministrableProductDefinition>
        <id value="Paracetamol-Kabi-10mg-1ml-solinj-EE-APD"/>
        <meta>
          <profile value="http://unicom-project.eu/fhir/StructureDefinition/PPLAdministrableProductDefinition"/>
        </meta>
        <text>
          <status value="generated"/><div xmlns="http://www.w3.org/1999/xhtml"><a name="AdministrableProductDefinition_Paracetamol-Kabi-10mg-1ml-solinj-EE-APD"> </a><p class="res-header-id"><b>Generated Narrative: AdministrableProductDefinition Paracetamol-Kabi-10mg-1ml-solinj-EE-APD</b></p><a name="Paracetamol-Kabi-10mg-1ml-solinj-EE-APD"> </a><a name="hcParacetamol-Kabi-10mg-1ml-solinj-EE-APD"> </a><a name="Paracetamol-Kabi-10mg-1ml-solinj-EE-APD-en-US"> </a><p><b>status</b>: Active</p><p><b>formOf</b>: <a href="Bundle-009-Paracetamol-Kabi10mg-1ml-EE-FullProduct.html#MedicinalProductDefinition_Paracetamol-Kabi-10mg-1ml-solinj-EE-MPD">Bundle: type = collection</a></p><p><b>administrableDoseForm</b>: <span title="Codes:{https://spor.ema.europa.eu/v1/lists/200000000004 100000174051}">Solution for solution for infusion</span></p><p><b>unitOfPresentation</b>: <span title="Codes:{https://spor.ema.europa.eu/v1/lists/200000000014 200000002158}">Vial</span></p><p><b>producedFrom</b>: <a href="Bundle-009-Paracetamol-Kabi10mg-1ml-EE-FullProduct.html#ManufacturedItemDefinition_Paracetamol-Kabi-10mg-1ml-solinj-EE-MID-1424034">Bundle: type = collection</a></p><h3>RouteOfAdministrations</h3><table class="grid"><tr><td style="display: none">-</td><td><b>Code</b></td></tr><tr><td style="display: none">*</td><td><span title="Codes:{https://spor.ema.europa.eu/v1/lists/100000073345 100000073611}">Intravenous use</span></td></tr></table></div>
        </text>
        <status value="active"/>
        <formOf>
          <reference value="MedicinalProductDefinition/Paracetamol-Kabi-10mg-1ml-solinj-EE-MPD"/>
        </formOf>
        <administrableDoseForm>
          <coding>
            <system value="https://spor.ema.europa.eu/v1/lists/200000000004"/>
            <code value="100000174051"/>
            <display value="Solution for solution for infusion"/>
          </coding>
        </administrableDoseForm>
        <unitOfPresentation>
          <coding>
            <system value="https://spor.ema.europa.eu/v1/lists/200000000014"/>
            <code value="200000002158"/>
            <display value="Vial"/>
          </coding>
        </unitOfPresentation>
        <producedFrom>
          <reference value="ManufacturedItemDefinition/Paracetamol-Kabi-10mg-1ml-solinj-EE-MID-1424034"/>
        </producedFrom>
        <routeOfAdministration>
          <code>
            <coding>
              <system value="https://spor.ema.europa.eu/v1/lists/100000073345"/>
              <code value="100000073611"/>
              <display value="Intravenous use"/>
            </coding>
          </code>
        </routeOfAdministration>
      </AdministrableProductDefinition>
    </resource>
  </entry>
  <entry>
    <fullUrl value="https://hl7-eu.github.io/unicom-ig/branches/mpd-r4b/ManufacturedItemDefinition-Paracetamol-Kabi-10mg-1ml-solinj-EE-MID-1424034"/>
    <resource>
      <ManufacturedItemDefinition>
        <id value="Paracetamol-Kabi-10mg-1ml-solinj-EE-MID-1424034"/>
        <meta>
          <profile value="http://unicom-project.eu/fhir/StructureDefinition/PPLManufacturedItemDefinition"/>
        </meta>
        <text>
          <status value="generated"/><div xmlns="http://www.w3.org/1999/xhtml"><a name="ManufacturedItemDefinition_Paracetamol-Kabi-10mg-1ml-solinj-EE-MID-1424034"> </a><p class="res-header-id"><b>Generated Narrative: ManufacturedItemDefinition Paracetamol-Kabi-10mg-1ml-solinj-EE-MID-1424034</b></p><a name="Paracetamol-Kabi-10mg-1ml-solinj-EE-MID-1424034"> </a><a name="hcParacetamol-Kabi-10mg-1ml-solinj-EE-MID-1424034"> </a><a name="Paracetamol-Kabi-10mg-1ml-solinj-EE-MID-1424034-en-US"> </a><p><b>status</b>: Active</p><p><b>manufacturedDoseForm</b>: <span title="Codes:{https://spor.ema.europa.eu/v1/lists/200000000004 100000073870}">Solution for infusion</span></p><p><b>unitOfPresentation</b>: <span title="Codes:{https://spor.ema.europa.eu/v1/lists/200000000014 200000002158}">Vial</span></p></div>
        </text>
        <status value="active"/>
        <manufacturedDoseForm>
          <coding>
            <system value="https://spor.ema.europa.eu/v1/lists/200000000004"/>
            <code value="100000073870"/>
            <display value="Solution for infusion"/>
          </coding>
        </manufacturedDoseForm>
        <unitOfPresentation>
          <coding>
            <system value="https://spor.ema.europa.eu/v1/lists/200000000014"/>
            <code value="200000002158"/>
            <display value="Vial"/>
          </coding>
        </unitOfPresentation>
      </ManufacturedItemDefinition>
    </resource>
  </entry>
  <entry>
    <fullUrl value="https://hl7-eu.github.io/unicom-ig/branches/mpd-r4b/ManufacturedItemDefinition-Paracetamol-Kabi-10mg-1ml-solinj-EE-MID-1799905"/>
    <resource>
      <ManufacturedItemDefinition>
        <id value="Paracetamol-Kabi-10mg-1ml-solinj-EE-MID-1799905"/>
        <meta>
          <profile value="http://unicom-project.eu/fhir/StructureDefinition/PPLManufacturedItemDefinition"/>
        </meta>
        <text>
          <status value="generated"/><div xmlns="http://www.w3.org/1999/xhtml"><a name="ManufacturedItemDefinition_Paracetamol-Kabi-10mg-1ml-solinj-EE-MID-1799905"> </a><p class="res-header-id"><b>Generated Narrative: ManufacturedItemDefinition Paracetamol-Kabi-10mg-1ml-solinj-EE-MID-1799905</b></p><a name="Paracetamol-Kabi-10mg-1ml-solinj-EE-MID-1799905"> </a><a name="hcParacetamol-Kabi-10mg-1ml-solinj-EE-MID-1799905"> </a><a name="Paracetamol-Kabi-10mg-1ml-solinj-EE-MID-1799905-en-US"> </a><p><b>status</b>: Active</p><p><b>manufacturedDoseForm</b>: <span title="Codes:{https://spor.ema.europa.eu/v1/lists/200000000004 100000073870}">Solution for infusion</span></p><p><b>unitOfPresentation</b>: <span title="Codes:{https://spor.ema.europa.eu/v1/lists/200000000014 200000002164}">Ampoule</span></p></div>
        </text>
        <status value="active"/>
        <manufacturedDoseForm>
          <coding>
            <system value="https://spor.ema.europa.eu/v1/lists/200000000004"/>
            <code value="100000073870"/>
            <display value="Solution for infusion"/>
          </coding>
        </manufacturedDoseForm>
        <unitOfPresentation>
          <coding>
            <system value="https://spor.ema.europa.eu/v1/lists/200000000014"/>
            <code value="200000002164"/>
            <display value="Ampoule"/>
          </coding>
        </unitOfPresentation>
      </ManufacturedItemDefinition>
    </resource>
  </entry>
  <entry>
    <fullUrl value="https://hl7-eu.github.io/unicom-ig/branches/mpd-r4b/ManufacturedItemDefinition-Paracetamol-Kabi-10mg-1ml-solinj-EE-MID-1424056"/>
    <resource>
      <ManufacturedItemDefinition>
        <id value="Paracetamol-Kabi-10mg-1ml-solinj-EE-MID-1424056"/>
        <meta>
          <profile value="http://unicom-project.eu/fhir/StructureDefinition/PPLManufacturedItemDefinition"/>
        </meta>
        <text>
          <status value="generated"/><div xmlns="http://www.w3.org/1999/xhtml"><a name="ManufacturedItemDefinition_Paracetamol-Kabi-10mg-1ml-solinj-EE-MID-1424056"> </a><p class="res-header-id"><b>Generated Narrative: ManufacturedItemDefinition Paracetamol-Kabi-10mg-1ml-solinj-EE-MID-1424056</b></p><a name="Paracetamol-Kabi-10mg-1ml-solinj-EE-MID-1424056"> </a><a name="hcParacetamol-Kabi-10mg-1ml-solinj-EE-MID-1424056"> </a><a name="Paracetamol-Kabi-10mg-1ml-solinj-EE-MID-1424056-en-US"> </a><p><b>status</b>: Active</p><p><b>manufacturedDoseForm</b>: <span title="Codes:{https://spor.ema.europa.eu/v1/lists/200000000004 100000073870}">Solution for infusion</span></p><p><b>unitOfPresentation</b>: <span title="Codes:{https://spor.ema.europa.eu/v1/lists/200000000014 200000002166}">Bag</span></p></div>
        </text>
        <status value="active"/>
        <manufacturedDoseForm>
          <coding>
            <system value="https://spor.ema.europa.eu/v1/lists/200000000004"/>
            <code value="100000073870"/>
            <display value="Solution for infusion"/>
          </coding>
        </manufacturedDoseForm>
        <unitOfPresentation>
          <coding>
            <system value="https://spor.ema.europa.eu/v1/lists/200000000014"/>
            <code value="200000002166"/>
            <display value="Bag"/>
          </coding>
        </unitOfPresentation>
      </ManufacturedItemDefinition>
    </resource>
  </entry>
  <entry>
    <fullUrl value="https://hl7-eu.github.io/unicom-ig/branches/mpd-r4b/Ingredient-Paracetamol-Kabi-10mg-1ml-solinj-EE-I"/>
    <resource>
      <Ingredient>
        <id value="Paracetamol-Kabi-10mg-1ml-solinj-EE-I"/>
        <meta>
          <profile value="http://unicom-project.eu/fhir/StructureDefinition/PPLIngredient"/>
        </meta>
        <text>
          <status value="generated"/><div xmlns="http://www.w3.org/1999/xhtml"><a name="Ingredient_Paracetamol-Kabi-10mg-1ml-solinj-EE-I"> </a><p class="res-header-id"><b>Generated Narrative: Ingredient Paracetamol-Kabi-10mg-1ml-solinj-EE-I</b></p><a name="Paracetamol-Kabi-10mg-1ml-solinj-EE-I"> </a><a name="hcParacetamol-Kabi-10mg-1ml-solinj-EE-I"> </a><a name="Paracetamol-Kabi-10mg-1ml-solinj-EE-I-en-US"> </a><p><b>status</b>: Active</p><p><b>for</b>: </p><ul><li><a href="Bundle-009-Paracetamol-Kabi10mg-1ml-EE-FullProduct.html#MedicinalProductDefinition_Paracetamol-Kabi-10mg-1ml-solinj-EE-MPD">Bundle: type = collection</a></li><li><a href="Bundle-009-Paracetamol-Kabi10mg-1ml-EE-FullProduct.html#ManufacturedItemDefinition_Paracetamol-Kabi-10mg-1ml-solinj-EE-MID-1424034">Bundle: type = collection</a></li><li><a href="Bundle-009-Paracetamol-Kabi10mg-1ml-EE-FullProduct.html#ManufacturedItemDefinition_Paracetamol-Kabi-10mg-1ml-solinj-EE-MID-1799905">Bundle: type = collection</a></li><li><a href="Bundle-009-Paracetamol-Kabi10mg-1ml-EE-FullProduct.html#ManufacturedItemDefinition_Paracetamol-Kabi-10mg-1ml-solinj-EE-MID-1424056">Bundle: type = collection</a></li><li><a href="Bundle-009-Paracetamol-Kabi10mg-1ml-EE-FullProduct.html#AdministrableProductDefinition_Paracetamol-Kabi-10mg-1ml-solinj-EE-APD">Bundle: type = collection</a></li></ul><p><b>role</b>: <span title="Codes:{https://spor.ema.europa.eu/v1/lists/100000072050 100000072072}">Active</span></p><blockquote><p><b>substance</b></p><h3>Codes</h3><table class="grid"><tr><td style="display: none">-</td><td><b>Concept</b></td></tr><tr><td style="display: none">*</td><td><span title="Codes:{https://spor.ema.europa.eu/v2/SubstanceDefinition 100000090270}">Paracetamol</span></td></tr></table><h3>Strengths</h3><table class="grid"><tr><td style="display: none">-</td><td><b>Concentration[x]</b></td></tr><tr><td style="display: none">*</td><td>10 milligram(s)<span style="background: LightGoldenRodYellow"> (Details: Unit of Measurement EMA  code100000110655 = 'milligram(s)')</span>/1 millilitre(s)<span style="background: LightGoldenRodYellow"> (Details: Unit of Measurement EMA  code100000110662 = 'millilitre(s)')</span></td></tr></table></blockquote></div>
        </text>
        <status value="active"/>
        <for>
          <reference value="MedicinalProductDefinition/Paracetamol-Kabi-10mg-1ml-solinj-EE-MPD"/>
        </for>
        <for>
          <reference value="ManufacturedItemDefinition/Paracetamol-Kabi-10mg-1ml-solinj-EE-MID-1424034"/>
        </for>
        <for>
          <reference value="ManufacturedItemDefinition/Paracetamol-Kabi-10mg-1ml-solinj-EE-MID-1799905"/>
        </for>
        <for>
          <reference value="ManufacturedItemDefinition/Paracetamol-Kabi-10mg-1ml-solinj-EE-MID-1424056"/>
        </for>
        <for>
          <reference value="AdministrableProductDefinition/Paracetamol-Kabi-10mg-1ml-solinj-EE-APD"/>
        </for>
        <role>
          <coding>
            <system value="https://spor.ema.europa.eu/v1/lists/100000072050"/>
            <code value="100000072072"/>
            <display value="Active"/>
          </coding>
        </role>
        <substance>
          <code>
            <concept>
              <coding>
                <system value="https://spor.ema.europa.eu/v2/SubstanceDefinition"/>
                <code value="100000090270"/>
                <display value="Paracetamol"/>
              </coding>
            </concept>
          </code>
          <strength>
            <concentrationRatio>
              <numerator>
                <value value="10"/>
                <unit value="milligram(s)"/>
                <system value="https://spor.ema.europa.eu/v1/lists/100000110633"/>
                <code value="100000110655"/>
              </numerator>
              <denominator>
                <value value="1"/>
                <unit value="millilitre(s)"/>
                <system value="https://spor.ema.europa.eu/v1/lists/100000110633"/>
                <code value="100000110662"/>
              </denominator>
            </concentrationRatio>
          </strength>
        </substance>
      </Ingredient>
    </resource>
  </entry>
  <entry>
    <fullUrl value="https://hl7-eu.github.io/unicom-ig/branches/mpd-r4b/PackagedProductDefinition-Paracetamol-Kabi-10mg-1ml-solinj-EE-PPD-1424034"/>
    <resource>
      <PackagedProductDefinition>
        <id value="Paracetamol-Kabi-10mg-1ml-solinj-EE-PPD-1424034"/>
        <meta>
          <profile value="http://unicom-project.eu/fhir/StructureDefinition/PPLPackagedProductDefinition"/>
        </meta>
        <text>
          <status value="generated"/><div xmlns="http://www.w3.org/1999/xhtml"><a name="PackagedProductDefinition_Paracetamol-Kabi-10mg-1ml-solinj-EE-PPD-1424034"> </a><p class="res-header-id"><b>Generated Narrative: PackagedProductDefinition Paracetamol-Kabi-10mg-1ml-solinj-EE-PPD-1424034</b></p><a name="Paracetamol-Kabi-10mg-1ml-solinj-EE-PPD-1424034"> </a><a name="hcParacetamol-Kabi-10mg-1ml-solinj-EE-PPD-1424034"> </a><a name="Paracetamol-Kabi-10mg-1ml-solinj-EE-PPD-1424034-en-US"> </a><p><b>identifier</b>: <code>http://ema.europa.eu/example/pcid</code>/EE-100008123-25101-1424034</p><p><b>packageFor</b>: <a href="Bundle-009-Paracetamol-Kabi10mg-1ml-EE-FullProduct.html#MedicinalProductDefinition_Paracetamol-Kabi-10mg-1ml-solinj-EE-MPD">Bundle: type = collection</a></p><p><b>containedItemQuantity</b>: 1 Vial<span style="background: LightGoldenRodYellow"> (Details: Unit of Presentation EMA  code200000002158 = 'Vial')</span></p><p><b>description</b>: </p><div><p>50 ml ja 100 ml II tüüpi klaasist viaalid, mis on suletud bromobutüülkorgi ja alumiinium/plastik  äratõmmatava korgiga.</p>
</div><h3>MarketingStatuses</h3><table class="grid"><tr><td style="display: none">-</td><td><b>Country</b></td><td><b>Status</b></td></tr><tr><td style="display: none">*</td><td><span title="Codes:{https://spor.ema.europa.eu/v1/lists/100000000002 100000000388}">Republic of Estonia</span></td><td><span title="Codes:{https://spor.ema.europa.eu/v1/lists/100000072052 100000072083}">Marketed</span></td></tr></table><blockquote><p><b>packaging</b></p><p><b>type</b>: <span title="Codes:{https://spor.ema.europa.eu/v1/lists/100000073346 100000073498}">Box</span></p><p><b>quantity</b>: 1</p><p><b>material</b>: <span title="Codes:{https://spor.ema.europa.eu/v1/lists/200000003199 200000003529}">Cardboard</span></p><blockquote><p><b>packaging</b></p></blockquote></blockquote></div>
        </text>
        <identifier>
          <system value="http://ema.europa.eu/example/pcid"/>
          <value value="EE-100008123-25101-1424034"/>
        </identifier>
        <packageFor>
          <reference value="MedicinalProductDefinition/Paracetamol-Kabi-10mg-1ml-solinj-EE-MPD"/>
        </packageFor>
        <containedItemQuantity>
          <value value="1"/>
          <unit value="Vial"/>
          <system value="https://spor.ema.europa.eu/v1/lists/200000000014"/>
          <code value="200000002158"/>
        </containedItemQuantity>
        <description value=" 50 ml ja 100 ml II tüüpi klaasist viaalid, mis on suletud bromobutüülkorgi ja alumiinium/plastik  äratõmmatava korgiga."/>
        <marketingStatus>
          <country>
            <coding>
              <system value="https://spor.ema.europa.eu/v1/lists/100000000002"/>
              <code value="100000000388"/>
              <display value="Republic of Estonia"/>
            </coding>
          </country>
          <status>
            <coding>
              <system value="https://spor.ema.europa.eu/v1/lists/100000072052"/>
              <code value="100000072083"/>
              <display value="Marketed"/>
            </coding>
          </status>
        </marketingStatus>
        <packaging>
          <type>
            <coding>
              <system value="https://spor.ema.europa.eu/v1/lists/100000073346"/>
              <code value="100000073498"/>
              <display value="Box"/>
            </coding>
          </type>
          <quantity value="1"/>
          <material>
            <coding>
              <system value="https://spor.ema.europa.eu/v1/lists/200000003199"/>
              <code value="200000003529"/>
              <display value="Cardboard"/>
            </coding>
          </material>
          <packaging>
            <type>
              <coding>
                <system value="https://spor.ema.europa.eu/v1/lists/100000073346"/>
                <code value="100000073563"/>
                <display value="vial"/>
              </coding>
            </type>
            <quantity value="1"/>
            <material>
              <coding>
                <system value="https://spor.ema.europa.eu/v1/lists/200000003199"/>
                <code value="200000003205"/>
                <display value="Glass type II"/>
              </coding>
            </material>
            <containedItem>
              <item>
                <reference>
                  <reference value="ManufacturedItemDefinition/Paracetamol-Kabi-10mg-1ml-solinj-EE-MID-1424034"/>
                </reference>
              </item>
              <amount>
                <value value="100"/>
                <unit value="millilitre(s)"/>
                <system value="https://spor.ema.europa.eu/v1/lists/100000110633"/>
                <code value="100000110662"/>
              </amount>
            </containedItem>
          </packaging>
        </packaging>
      </PackagedProductDefinition>
    </resource>
  </entry>
  <entry>
    <fullUrl value="https://hl7-eu.github.io/unicom-ig/branches/mpd-r4b/PackagedProductDefinition-Paracetamol-Kabi-10mg-1ml-solinj-EE-PPD-1799905"/>
    <resource>
      <PackagedProductDefinition>
        <id value="Paracetamol-Kabi-10mg-1ml-solinj-EE-PPD-1799905"/>
        <meta>
          <profile value="http://unicom-project.eu/fhir/StructureDefinition/PPLPackagedProductDefinition"/>
        </meta>
        <text>
          <status value="generated"/><div xmlns="http://www.w3.org/1999/xhtml"><a name="PackagedProductDefinition_Paracetamol-Kabi-10mg-1ml-solinj-EE-PPD-1799905"> </a><p class="res-header-id"><b>Generated Narrative: PackagedProductDefinition Paracetamol-Kabi-10mg-1ml-solinj-EE-PPD-1799905</b></p><a name="Paracetamol-Kabi-10mg-1ml-solinj-EE-PPD-1799905"> </a><a name="hcParacetamol-Kabi-10mg-1ml-solinj-EE-PPD-1799905"> </a><a name="Paracetamol-Kabi-10mg-1ml-solinj-EE-PPD-1799905-en-US"> </a><p><b>identifier</b>: <code>http://ema.europa.eu/example/pcid</code>/EE-100008123-25101-1799905</p><p><b>packageFor</b>: <a href="Bundle-009-Paracetamol-Kabi10mg-1ml-EE-FullProduct.html#MedicinalProductDefinition_Paracetamol-Kabi-10mg-1ml-solinj-EE-MPD">Bundle: type = collection</a></p><p><b>containedItemQuantity</b>: 10 Ampoule<span style="background: LightGoldenRodYellow"> (Details: Unit of Presentation EMA  code200000002164 = 'Ampoule')</span></p><p><b>description</b>: </p><div><p>10 ml I tüüpi värvitust klaasist ampullid.</p>
</div><h3>MarketingStatuses</h3><table class="grid"><tr><td style="display: none">-</td><td><b>Country</b></td><td><b>Status</b></td></tr><tr><td style="display: none">*</td><td><span title="Codes:{https://spor.ema.europa.eu/v1/lists/100000000002 100000000388}">Republic of Estonia</span></td><td><span title="Codes:{https://spor.ema.europa.eu/v1/lists/100000072052 100000072083}">Marketed</span></td></tr></table><blockquote><p><b>packaging</b></p><p><b>type</b>: <span title="Codes:{https://spor.ema.europa.eu/v1/lists/100000073346 100000073498}">Box</span></p><p><b>quantity</b>: 1</p><p><b>material</b>: <span title="Codes:{https://spor.ema.europa.eu/v1/lists/200000003199 200000003529}">Cardboard</span></p><blockquote><p><b>packaging</b></p></blockquote></blockquote></div>
        </text>
        <identifier>
          <system value="http://ema.europa.eu/example/pcid"/>
          <value value="EE-100008123-25101-1799905"/>
        </identifier>
        <packageFor>
          <reference value="MedicinalProductDefinition/Paracetamol-Kabi-10mg-1ml-solinj-EE-MPD"/>
        </packageFor>
        <containedItemQuantity>
          <value value="10"/>
          <unit value="Ampoule"/>
          <system value="https://spor.ema.europa.eu/v1/lists/200000000014"/>
          <code value="200000002164"/>
        </containedItemQuantity>
        <description value="10 ml I tüüpi värvitust klaasist ampullid."/>
        <marketingStatus>
          <country>
            <coding>
              <system value="https://spor.ema.europa.eu/v1/lists/100000000002"/>
              <code value="100000000388"/>
              <display value="Republic of Estonia"/>
            </coding>
          </country>
          <status>
            <coding>
              <system value="https://spor.ema.europa.eu/v1/lists/100000072052"/>
              <code value="100000072083"/>
              <display value="Marketed"/>
            </coding>
          </status>
        </marketingStatus>
        <packaging>
          <type>
            <coding>
              <system value="https://spor.ema.europa.eu/v1/lists/100000073346"/>
              <code value="100000073498"/>
              <display value="Box"/>
            </coding>
          </type>
          <quantity value="1"/>
          <material>
            <coding>
              <system value="https://spor.ema.europa.eu/v1/lists/200000003199"/>
              <code value="200000003529"/>
              <display value="Cardboard"/>
            </coding>
          </material>
          <packaging>
            <type>
              <coding>
                <system value="https://spor.ema.europa.eu/v1/lists/100000073346"/>
                <code value="100000073490"/>
                <display value="Ampoule"/>
              </coding>
            </type>
            <quantity value="10"/>
            <material>
              <coding>
                <system value="https://spor.ema.europa.eu/v1/lists/200000003199"/>
                <code value="200000003204"/>
                <display value="Glass type I"/>
              </coding>
            </material>
            <containedItem>
              <item>
                <reference>
                  <reference value="ManufacturedItemDefinition/Paracetamol-Kabi-10mg-1ml-solinj-EE-MID-1799905"/>
                </reference>
              </item>
              <amount>
                <value value="10"/>
                <unit value="millilitre(s)"/>
                <system value="https://spor.ema.europa.eu/v1/lists/100000110633"/>
                <code value="100000110662"/>
              </amount>
            </containedItem>
          </packaging>
        </packaging>
      </PackagedProductDefinition>
    </resource>
  </entry>
  <entry>
    <fullUrl value="https://hl7-eu.github.io/unicom-ig/branches/mpd-r4b/PackagedProductDefinition-Paracetamol-Kabi-10mg-1ml-solinj-EE-PPD-1424056"/>
    <resource>
      <PackagedProductDefinition>
        <id value="Paracetamol-Kabi-10mg-1ml-solinj-EE-PPD-1424056"/>
        <meta>
          <profile value="http://unicom-project.eu/fhir/StructureDefinition/PPLPackagedProductDefinition"/>
        </meta>
        <text>
          <status value="generated"/><div xmlns="http://www.w3.org/1999/xhtml"><a name="PackagedProductDefinition_Paracetamol-Kabi-10mg-1ml-solinj-EE-PPD-1424056"> </a><p class="res-header-id"><b>Generated Narrative: PackagedProductDefinition Paracetamol-Kabi-10mg-1ml-solinj-EE-PPD-1424056</b></p><a name="Paracetamol-Kabi-10mg-1ml-solinj-EE-PPD-1424056"> </a><a name="hcParacetamol-Kabi-10mg-1ml-solinj-EE-PPD-1424056"> </a><a name="Paracetamol-Kabi-10mg-1ml-solinj-EE-PPD-1424056-en-US"> </a><p><b>identifier</b>: <code>http://ema.europa.eu/example/pcid</code>/EE-100008123-25101-1424056</p><p><b>packageFor</b>: <a href="Bundle-009-Paracetamol-Kabi10mg-1ml-EE-FullProduct.html#MedicinalProductDefinition_Paracetamol-Kabi-10mg-1ml-solinj-EE-MPD">Bundle: type = collection</a></p><p><b>containedItemQuantity</b>: 1 Bag<span style="background: LightGoldenRodYellow"> (Details: Unit of Presentation EMA  code200000002166 = 'Bag')</span></p><p><b>description</b>: </p><div><p>50 ml ja 100 ml plastkotid, millel on manustamisport (infusiooniport) ja lisamisport (süsteport); kotid koosnevad polüolefiinist sisekihist ja alumiiniumisisaldusega kattekihist ning sisaldavad hapnikuabsorbenti. Kotid on suletud polüisopreenist korgi ja polüpropüleenist kaanega.</p>
</div><h3>MarketingStatuses</h3><table class="grid"><tr><td style="display: none">-</td><td><b>Country</b></td><td><b>Status</b></td></tr><tr><td style="display: none">*</td><td><span title="Codes:{https://spor.ema.europa.eu/v1/lists/100000000002 100000000388}">Republic of Estonia</span></td><td><span title="Codes:{https://spor.ema.europa.eu/v1/lists/100000072052 100000072083}">Marketed</span></td></tr></table><blockquote><p><b>packaging</b></p><p><b>type</b>: <span title="Codes:{https://spor.ema.europa.eu/v1/lists/100000073346 100000073498}">Box</span></p><p><b>quantity</b>: 1</p><p><b>material</b>: <span title="Codes:{https://spor.ema.europa.eu/v1/lists/200000003199 200000003529}">Cardboard</span></p><blockquote><p><b>packaging</b></p></blockquote></blockquote></div>
        </text>
        <identifier>
          <system value="http://ema.europa.eu/example/pcid"/>
          <value value="EE-100008123-25101-1424056"/>
        </identifier>
        <packageFor>
          <reference value="MedicinalProductDefinition/Paracetamol-Kabi-10mg-1ml-solinj-EE-MPD"/>
        </packageFor>
        <containedItemQuantity>
          <value value="1"/>
          <unit value="Bag"/>
          <system value="https://spor.ema.europa.eu/v1/lists/200000000014"/>
          <code value="200000002166"/>
        </containedItemQuantity>
        <description value="50 ml ja 100 ml plastkotid, millel on manustamisport (infusiooniport) ja lisamisport (süsteport); kotid koosnevad polüolefiinist sisekihist ja alumiiniumisisaldusega kattekihist ning sisaldavad hapnikuabsorbenti. Kotid on suletud polüisopreenist korgi ja polüpropüleenist kaanega."/>
        <marketingStatus>
          <country>
            <coding>
              <system value="https://spor.ema.europa.eu/v1/lists/100000000002"/>
              <code value="100000000388"/>
              <display value="Republic of Estonia"/>
            </coding>
          </country>
          <status>
            <coding>
              <system value="https://spor.ema.europa.eu/v1/lists/100000072052"/>
              <code value="100000072083"/>
              <display value="Marketed"/>
            </coding>
          </status>
        </marketingStatus>
        <packaging>
          <type>
            <coding>
              <system value="https://spor.ema.europa.eu/v1/lists/100000073346"/>
              <code value="100000073498"/>
              <display value="Box"/>
            </coding>
          </type>
          <quantity value="1"/>
          <material>
            <coding>
              <system value="https://spor.ema.europa.eu/v1/lists/200000003199"/>
              <code value="200000003529"/>
              <display value="Cardboard"/>
            </coding>
          </material>
          <packaging>
            <type>
              <coding>
                <system value="https://spor.ema.europa.eu/v1/lists/100000073346"/>
                <code value="100000073493"/>
                <display value="Bag"/>
              </coding>
            </type>
            <quantity value="20"/>
            <material>
              <coding>
                <system value="https://spor.ema.europa.eu/v1/lists/200000003199"/>
                <code value="200000003218"/>
                <display value="Polyolefin"/>
              </coding>
            </material>
            <containedItem>
              <item>
                <reference>
                  <reference value="ManufacturedItemDefinition/Paracetamol-Kabi-10mg-1ml-solinj-EE-MID-1424056"/>
                </reference>
              </item>
              <amount>
                <value value="100"/>
                <unit value="millilitre(s)"/>
                <system value="https://spor.ema.europa.eu/v1/lists/100000110633"/>
                <code value="100000110662"/>
              </amount>
            </containedItem>
          </packaging>
        </packaging>
      </PackagedProductDefinition>
    </resource>
  </entry>
</Bundle>