{
  "resourceType" : "Bundle",
  "id" : "017-ImovaxPolio-EE-FullProduct",
  "type" : "collection",
  "entry" : [{
    "fullUrl" : "https://hl7-eu.github.io/unicom-ig/branches/mpd-r4b/MedicinalProductDefinition-ImovaxPolio-EE-IS-MedicinalProductDefinition",
    "resource" : {
      "resourceType" : "MedicinalProductDefinition",
      "id" : "ImovaxPolio-EE-IS-MedicinalProductDefinition",
      "meta" : {
        "profile" : ["http://unicom-project.eu/fhir/StructureDefinition/PPLMedicinalProductDefinition"]
      },
      "text" : {
        "status" : "generated",
        "div" : "<div xmlns=\"http://www.w3.org/1999/xhtml\"><a name=\"MedicinalProductDefinition_ImovaxPolio-EE-IS-MedicinalProductDefinition\"> </a><p class=\"res-header-id\"><b>Generated Narrative: MedicinalProductDefinition ImovaxPolio-EE-IS-MedicinalProductDefinition</b></p><a name=\"ImovaxPolio-EE-IS-MedicinalProductDefinition\"> </a><a name=\"hcImovaxPolio-EE-IS-MedicinalProductDefinition\"> </a><a name=\"ImovaxPolio-EE-IS-MedicinalProductDefinition-en-US\"> </a><p><b>identifier</b>: <code>http://ema.europa.eu/fhir/mpId</code>/EE-100010589-1025985</p><p><b>domain</b>: <span title=\"Codes:{https://spor.ema.europa.eu/v1/lists/100000000004 100000000012}\">Human use</span></p><p><b>status</b>: <span title=\"Codes:{https://spor.ema.europa.eu/v1/lists/200000005003 200000005004}\">Current</span></p><p><b>combinedPharmaceuticalDoseForm</b>: <span title=\"Codes:{https://spor.ema.europa.eu/v1/lists/200000000007 100000074050}\">Suspension for injection in pre-filled pen</span></p><p><b>indication</b>: </p><div><p>Poliomüeliidi ennetamine (esmane vaktsineerimine ja revaktsineerimine) väikelastel, lastel ja\ntäiskasvanutel.</p>\n</div><p><b>legalStatusOfSupply</b>: <span title=\"Codes:{https://spor.ema.europa.eu/v1/lists/100000072051 100000072084}\">Medicinal product subject to medical prescription</span></p><p><b>classification</b>: <span title=\"Codes:{https://spor.ema.europa.eu/v1/lists/100000093533 100000096580}\">poliomyelitis, trivalent, inactivated, whole virus</span>, <span title=\"Codes:{http://www.whocc.no/atc J07BF03}\">poliomyelitis, trivalent, inactivated, whole virus</span></p><blockquote><p><b>name</b></p><p><b>productName</b>: Imovax Polio, süstesuspensioon süstlis</p><blockquote><p><b>part</b></p><p><b>part</b>: Imovax Polio</p><p><b>type</b>: <span title=\"Codes:{https://spor.ema.europa.eu/v1/lists/220000000000 220000000002}\">Invented name part</span></p></blockquote><blockquote><p><b>part</b></p><p><b>part</b>: süstesuspensioon süstlis</p><p><b>type</b>: <span title=\"Codes:{https://spor.ema.europa.eu/v1/lists/220000000000 220000000005}\">Pharmaceutical dose form part</span></p></blockquote><h3>Usages</h3><table class=\"grid\"><tr><td style=\"display: none\">-</td><td><b>Country</b></td><td><b>Language</b></td></tr><tr><td style=\"display: none\">*</td><td><span title=\"Codes:{https://spor.ema.europa.eu/v1/lists/100000000002 100000000388}\">Estonia</span></td><td><span title=\"Codes:{urn:ietf:bcp:47 et}\">Estonian</span></td></tr></table></blockquote></div>"
      },
      "identifier" : [{
        "system" : "http://ema.europa.eu/fhir/mpId",
        "value" : "EE-100010589-1025985"
      }],
      "domain" : {
        "coding" : [{
          "system" : "https://spor.ema.europa.eu/v1/lists/100000000004",
          "code" : "100000000012",
          "display" : "Human use"
        }]
      },
      "status" : {
        "coding" : [{
          "system" : "https://spor.ema.europa.eu/v1/lists/200000005003",
          "code" : "200000005004",
          "display" : "Current"
        }]
      },
      "combinedPharmaceuticalDoseForm" : {
        "coding" : [{
          "system" : "https://spor.ema.europa.eu/v1/lists/200000000007",
          "code" : "100000074050",
          "display" : "Suspension for injection in pre-filled pen"
        }]
      },
      "indication" : "Poliomüeliidi ennetamine (esmane vaktsineerimine ja revaktsineerimine) väikelastel, lastel ja\r\ntäiskasvanutel.",
      "legalStatusOfSupply" : {
        "coding" : [{
          "system" : "https://spor.ema.europa.eu/v1/lists/100000072051",
          "code" : "100000072084",
          "display" : "Medicinal product subject to medical prescription"
        }]
      },
      "classification" : [{
        "coding" : [{
          "system" : "https://spor.ema.europa.eu/v1/lists/100000093533",
          "code" : "100000096580",
          "display" : "poliomyelitis, trivalent, inactivated, whole virus"
        }]
      },
      {
        "coding" : [{
          "system" : "http://www.whocc.no/atc",
          "code" : "J07BF03",
          "display" : "poliomyelitis, trivalent, inactivated, whole virus"
        }]
      }],
      "name" : [{
        "productName" : "Imovax Polio, süstesuspensioon süstlis",
        "part" : [{
          "part" : "Imovax Polio",
          "type" : {
            "coding" : [{
              "system" : "https://spor.ema.europa.eu/v1/lists/220000000000",
              "code" : "220000000002",
              "display" : "Invented name part"
            }]
          }
        },
        {
          "part" : "süstesuspensioon süstlis",
          "type" : {
            "coding" : [{
              "system" : "https://spor.ema.europa.eu/v1/lists/220000000000",
              "code" : "220000000005",
              "display" : "Pharmaceutical dose form part"
            }]
          }
        }],
        "usage" : [{
          "country" : {
            "coding" : [{
              "system" : "https://spor.ema.europa.eu/v1/lists/100000000002",
              "code" : "100000000388",
              "display" : "Estonia"
            }]
          },
          "language" : {
            "coding" : [{
              "system" : "urn:ietf:bcp:47",
              "code" : "et",
              "display" : "Estonian"
            }]
          }
        }]
      }]
    }
  },
  {
    "fullUrl" : "https://hl7-eu.github.io/unicom-ig/branches/mpd-r4b/RegulatedAuthorization-ImovaxPolio-EE-IS-RegulatedAuthorization",
    "resource" : {
      "resourceType" : "RegulatedAuthorization",
      "id" : "ImovaxPolio-EE-IS-RegulatedAuthorization",
      "meta" : {
        "profile" : ["http://unicom-project.eu/fhir/StructureDefinition/PPLRegulatedAuthorization"]
      },
      "text" : {
        "status" : "generated",
        "div" : "<div xmlns=\"http://www.w3.org/1999/xhtml\"><a name=\"RegulatedAuthorization_ImovaxPolio-EE-IS-RegulatedAuthorization\"> </a><p class=\"res-header-id\"><b>Generated Narrative: RegulatedAuthorization ImovaxPolio-EE-IS-RegulatedAuthorization</b></p><a name=\"ImovaxPolio-EE-IS-RegulatedAuthorization\"> </a><a name=\"hcImovaxPolio-EE-IS-RegulatedAuthorization\"> </a><a name=\"ImovaxPolio-EE-IS-RegulatedAuthorization-en-US\"> </a><p><b>identifier</b>: 301700</p><p><b>subject</b>: <a href=\"Bundle-017-ImovaxPolio-EE-FullProduct.html#MedicinalProductDefinition_ImovaxPolio-EE-IS-MedicinalProductDefinition\">Bundle: type = collection</a></p><p><b>type</b>: <span title=\"Codes:{https://spor.ema.europa.eu/v1/lists/220000000060 220000000061}\">Marketing Authorisation</span></p><p><b>region</b>: <span title=\"Codes:{https://spor.ema.europa.eu/v1/lists/100000000002 100000000388}\">Estonia</span></p><p><b>status</b>: <span title=\"Codes:{https://spor.ema.europa.eu/v1/lists/100000072049 100000072099}\">Valid</span></p><p><b>statusDate</b>: 2000-02-25</p><p><b>holder</b>: <a href=\"Bundle-017-ImovaxPolio-EE-FullProduct.html#Organization_LOC-100010589-SanofiPasteur\">Bundle: type = collection</a></p></div>"
      },
      "identifier" : [{
        "value" : "301700"
      }],
      "subject" : [{
        "reference" : "MedicinalProductDefinition/ImovaxPolio-EE-IS-MedicinalProductDefinition"
      }],
      "type" : {
        "coding" : [{
          "system" : "https://spor.ema.europa.eu/v1/lists/220000000060",
          "code" : "220000000061",
          "display" : "Marketing Authorisation"
        }]
      },
      "region" : [{
        "coding" : [{
          "system" : "https://spor.ema.europa.eu/v1/lists/100000000002",
          "code" : "100000000388",
          "display" : "Estonia"
        }]
      }],
      "status" : {
        "coding" : [{
          "system" : "https://spor.ema.europa.eu/v1/lists/100000072049",
          "code" : "100000072099",
          "display" : "Valid"
        }]
      },
      "statusDate" : "2000-02-25",
      "holder" : {
        "reference" : "Organization/LOC-100010589-SanofiPasteur"
      }
    }
  },
  {
    "fullUrl" : "https://hl7-eu.github.io/unicom-ig/branches/mpd-r4b/Organization-LOC-100010589-SanofiPasteur",
    "resource" : {
      "resourceType" : "Organization",
      "id" : "LOC-100010589-SanofiPasteur",
      "meta" : {
        "profile" : ["http://unicom-project.eu/fhir/StructureDefinition/PPLOrganization"]
      },
      "text" : {
        "status" : "generated",
        "div" : "<div xmlns=\"http://www.w3.org/1999/xhtml\"><a name=\"Organization_LOC-100010589-SanofiPasteur\"> </a><p class=\"res-header-id\"><b>Generated Narrative: Organization LOC-100010589-SanofiPasteur</b></p><a name=\"LOC-100010589-SanofiPasteur\"> </a><a name=\"hcLOC-100010589-SanofiPasteur\"> </a><a name=\"LOC-100010589-SanofiPasteur-en-US\"> </a><p><b>identifier</b>: <code>https://spor.ema.europa.eu/v1/locations</code>/LOC-100010589</p><p><b>name</b>: Sanofi Pasteur</p></div>"
      },
      "identifier" : [{
        "system" : "https://spor.ema.europa.eu/v1/locations",
        "value" : "LOC-100010589"
      }],
      "name" : "Sanofi Pasteur"
    }
  },
  {
    "fullUrl" : "https://hl7-eu.github.io/unicom-ig/branches/mpd-r4b/AdministrableProductDefinition-ImovaxPolio-EE-IS-AdminProdDef",
    "resource" : {
      "resourceType" : "AdministrableProductDefinition",
      "id" : "ImovaxPolio-EE-IS-AdminProdDef",
      "meta" : {
        "profile" : ["http://unicom-project.eu/fhir/StructureDefinition/PPLAdministrableProductDefinition"]
      },
      "text" : {
        "status" : "generated",
        "div" : "<div xmlns=\"http://www.w3.org/1999/xhtml\"><a name=\"AdministrableProductDefinition_ImovaxPolio-EE-IS-AdminProdDef\"> </a><p class=\"res-header-id\"><b>Generated Narrative: AdministrableProductDefinition ImovaxPolio-EE-IS-AdminProdDef</b></p><a name=\"ImovaxPolio-EE-IS-AdminProdDef\"> </a><a name=\"hcImovaxPolio-EE-IS-AdminProdDef\"> </a><a name=\"ImovaxPolio-EE-IS-AdminProdDef-en-US\"> </a><p><b>status</b>: Active</p><p><b>formOf</b>: <a href=\"Bundle-017-ImovaxPolio-EE-FullProduct.html#MedicinalProductDefinition_ImovaxPolio-EE-IS-MedicinalProductDefinition\">Bundle: type = collection</a></p><p><b>administrableDoseForm</b>: <span title=\"Codes:{https://spor.ema.europa.eu/v1/lists/200000000004 100000073864}\">Suspension for injection</span></p><p><b>producedFrom</b>: <a href=\"Bundle-017-ImovaxPolio-EE-FullProduct.html#ManufacturedItemDefinition_ImovaxPolio-EE-IS-ManufacturedItemDefinition\">Bundle: type = collection</a></p><h3>RouteOfAdministrations</h3><table class=\"grid\"><tr><td style=\"display: none\">-</td><td><b>Code</b></td></tr><tr><td style=\"display: none\">*</td><td><span title=\"Codes:{https://spor.ema.europa.eu/v1/lists/100000073345 100000073600}\">Intramuscular use</span></td></tr></table></div>"
      },
      "status" : "active",
      "formOf" : [{
        "reference" : "MedicinalProductDefinition/ImovaxPolio-EE-IS-MedicinalProductDefinition"
      }],
      "administrableDoseForm" : {
        "coding" : [{
          "system" : "https://spor.ema.europa.eu/v1/lists/200000000004",
          "code" : "100000073864",
          "display" : "Suspension for injection"
        }]
      },
      "producedFrom" : [{
        "reference" : "ManufacturedItemDefinition/ImovaxPolio-EE-IS-ManufacturedItemDefinition"
      }],
      "routeOfAdministration" : [{
        "code" : {
          "coding" : [{
            "system" : "https://spor.ema.europa.eu/v1/lists/100000073345",
            "code" : "100000073600",
            "display" : "Intramuscular use"
          }]
        }
      }]
    }
  },
  {
    "fullUrl" : "https://hl7-eu.github.io/unicom-ig/branches/mpd-r4b/PackagedProductDefinition-ImovaxPolio-EE-IS-PackagedProductDefinition",
    "resource" : {
      "resourceType" : "PackagedProductDefinition",
      "id" : "ImovaxPolio-EE-IS-PackagedProductDefinition",
      "meta" : {
        "profile" : ["http://unicom-project.eu/fhir/StructureDefinition/PPLPackagedProductDefinition"]
      },
      "text" : {
        "status" : "generated",
        "div" : "<div xmlns=\"http://www.w3.org/1999/xhtml\"><a name=\"PackagedProductDefinition_ImovaxPolio-EE-IS-PackagedProductDefinition\"> </a><p class=\"res-header-id\"><b>Generated Narrative: PackagedProductDefinition ImovaxPolio-EE-IS-PackagedProductDefinition</b></p><a name=\"ImovaxPolio-EE-IS-PackagedProductDefinition\"> </a><a name=\"hcImovaxPolio-EE-IS-PackagedProductDefinition\"> </a><a name=\"ImovaxPolio-EE-IS-PackagedProductDefinition-en-US\"> </a><p><b>identifier</b>: <code>http://ema.europa.eu/example/pcid</code>/?ngen-9?</p><p><b>packageFor</b>: <a href=\"Bundle-017-ImovaxPolio-EE-FullProduct.html#MedicinalProductDefinition_ImovaxPolio-EE-IS-MedicinalProductDefinition\">Bundle: type = collection</a></p><p><b>containedItemQuantity</b>: 1 Pen<span style=\"background: LightGoldenRodYellow\"> (Details: Unit of Presentation EMA  code200000002135 = 'Pen')</span></p><p><b>description</b>: </p><div><p>0,5 ml süstesuspensiooni eeltäidetud süstlas (I tüüpi klaas), mis on varustatud kolbkorgiga\n(klorobutüülist) – karbis 1 tk.</p>\n</div><h3>MarketingStatuses</h3><table class=\"grid\"><tr><td style=\"display: none\">-</td><td><b>Country</b></td><td><b>Status</b></td></tr><tr><td style=\"display: none\">*</td><td><span title=\"Codes:{https://spor.ema.europa.eu/v1/lists/100000000002 100000000388}\">Estonia</span></td><td><span title=\"Codes:{https://spor.ema.europa.eu/v1/lists/100000072052 100000072083}\">Marketed</span></td></tr></table><blockquote><p><b>packaging</b></p><p><b>type</b>: <span title=\"Codes:{https://spor.ema.europa.eu/v1/lists/100000073346 100000073498}\">Box</span></p><p><b>quantity</b>: 1</p><p><b>material</b>: <span title=\"Codes:{https://spor.ema.europa.eu/v1/lists/200000003199 200000003529}\">Cardboard</span></p><blockquote><p><b>packaging</b></p></blockquote></blockquote></div>"
      },
      "identifier" : [{
        "system" : "http://ema.europa.eu/example/pcid"
      }],
      "packageFor" : [{
        "reference" : "MedicinalProductDefinition/ImovaxPolio-EE-IS-MedicinalProductDefinition"
      }],
      "containedItemQuantity" : [{
        "value" : 1,
        "unit" : "Pen",
        "system" : "https://spor.ema.europa.eu/v1/lists/200000000014",
        "code" : "200000002135"
      }],
      "description" : "0,5 ml süstesuspensiooni eeltäidetud süstlas (I tüüpi klaas), mis on varustatud kolbkorgiga\r\n(klorobutüülist) – karbis 1 tk.",
      "marketingStatus" : [{
        "country" : {
          "coding" : [{
            "system" : "https://spor.ema.europa.eu/v1/lists/100000000002",
            "code" : "100000000388",
            "display" : "Estonia"
          }]
        },
        "status" : {
          "coding" : [{
            "system" : "https://spor.ema.europa.eu/v1/lists/100000072052",
            "code" : "100000072083",
            "display" : "Marketed"
          }]
        }
      }],
      "packaging" : {
        "type" : {
          "coding" : [{
            "system" : "https://spor.ema.europa.eu/v1/lists/100000073346",
            "code" : "100000073498",
            "display" : "Box"
          }]
        },
        "quantity" : 1,
        "material" : [{
          "coding" : [{
            "system" : "https://spor.ema.europa.eu/v1/lists/200000003199",
            "code" : "200000003529",
            "display" : "Cardboard"
          }]
        }],
        "packaging" : [{
          "type" : {
            "coding" : [{
              "system" : "https://spor.ema.europa.eu/v1/lists/100000073346",
              "code" : "100000073543",
              "display" : "Prefilled pen"
            }]
          },
          "quantity" : 1,
          "material" : [{
            "coding" : [{
              "system" : "https://spor.ema.europa.eu/v1/lists/200000003199",
              "code" : "200000003203",
              "display" : "Glass"
            }]
          }],
          "containedItem" : [{
            "item" : {
              "reference" : {
                "reference" : "ManufacturedItemDefinition/ImovaxPolio-EE-IS-ManufacturedItemDefinition"
              }
            },
            "amount" : {
              "value" : 1,
              "unit" : "Pen",
              "system" : "https://spor.ema.europa.eu/v1/lists/200000000014",
              "code" : "200000002135"
            }
          }]
        }]
      }
    }
  },
  {
    "fullUrl" : "https://hl7-eu.github.io/unicom-ig/branches/mpd-r4b/ManufacturedItemDefinition-ImovaxPolio-EE-IS-ManufacturedItemDefinition",
    "resource" : {
      "resourceType" : "ManufacturedItemDefinition",
      "id" : "ImovaxPolio-EE-IS-ManufacturedItemDefinition",
      "meta" : {
        "profile" : ["http://unicom-project.eu/fhir/StructureDefinition/PPLManufacturedItemDefinition"]
      },
      "text" : {
        "status" : "generated",
        "div" : "<div xmlns=\"http://www.w3.org/1999/xhtml\"><a name=\"ManufacturedItemDefinition_ImovaxPolio-EE-IS-ManufacturedItemDefinition\"> </a><p class=\"res-header-id\"><b>Generated Narrative: ManufacturedItemDefinition ImovaxPolio-EE-IS-ManufacturedItemDefinition</b></p><a name=\"ImovaxPolio-EE-IS-ManufacturedItemDefinition\"> </a><a name=\"hcImovaxPolio-EE-IS-ManufacturedItemDefinition\"> </a><a name=\"ImovaxPolio-EE-IS-ManufacturedItemDefinition-en-US\"> </a><p><b>status</b>: Active</p><p><b>manufacturedDoseForm</b>: <span title=\"Codes:{https://spor.ema.europa.eu/v1/lists/200000000004 100000073864}\">Suspension for injection</span></p><p><b>unitOfPresentation</b>: <span title=\"Codes:{https://spor.ema.europa.eu/v1/lists/200000000014 200000002135}\">Pen</span></p></div>"
      },
      "status" : "active",
      "manufacturedDoseForm" : {
        "coding" : [{
          "system" : "https://spor.ema.europa.eu/v1/lists/200000000004",
          "code" : "100000073864",
          "display" : "Suspension for injection"
        }]
      },
      "unitOfPresentation" : {
        "coding" : [{
          "system" : "https://spor.ema.europa.eu/v1/lists/200000000014",
          "code" : "200000002135",
          "display" : "Pen"
        }]
      }
    }
  },
  {
    "fullUrl" : "https://hl7-eu.github.io/unicom-ig/branches/mpd-r4b/Ingredient-ImovaxPolio-EE-IS-Ingredient-1",
    "resource" : {
      "resourceType" : "Ingredient",
      "id" : "ImovaxPolio-EE-IS-Ingredient-1",
      "meta" : {
        "profile" : ["http://unicom-project.eu/fhir/StructureDefinition/PPLIngredient"]
      },
      "text" : {
        "status" : "generated",
        "div" : "<div xmlns=\"http://www.w3.org/1999/xhtml\"><a name=\"Ingredient_ImovaxPolio-EE-IS-Ingredient-1\"> </a><p class=\"res-header-id\"><b>Generated Narrative: Ingredient ImovaxPolio-EE-IS-Ingredient-1</b></p><a name=\"ImovaxPolio-EE-IS-Ingredient-1\"> </a><a name=\"hcImovaxPolio-EE-IS-Ingredient-1\"> </a><a name=\"ImovaxPolio-EE-IS-Ingredient-1-en-US\"> </a><p><b>status</b>: Active</p><p><b>for</b>: </p><ul><li><a href=\"Bundle-017-ImovaxPolio-EE-FullProduct.html#MedicinalProductDefinition_ImovaxPolio-EE-IS-MedicinalProductDefinition\">Bundle: type = collection</a></li><li><a href=\"Bundle-017-ImovaxPolio-EE-FullProduct.html#ManufacturedItemDefinition_ImovaxPolio-EE-IS-ManufacturedItemDefinition\">Bundle: type = collection</a></li><li><a href=\"Bundle-017-ImovaxPolio-EE-FullProduct.html#AdministrableProductDefinition_ImovaxPolio-EE-IS-AdminProdDef\">Bundle: type = collection</a></li></ul><p><b>role</b>: <span title=\"Codes:{https://spor.ema.europa.eu/v1/lists/100000072050 100000072072}\">Active</span></p><blockquote><p><b>substance</b></p><h3>Codes</h3><table class=\"grid\"><tr><td style=\"display: none\">-</td><td><b>Concept</b></td></tr><tr><td style=\"display: none\">*</td><td><span title=\"Codes:{https://spor.ema.europa.eu/v2/SubstanceDefinition 100000089279}\">Poliovirus (inactivated) type 1 (Mahoney strain)</span></td></tr></table><blockquote><p><b>strength</b></p><p><b>presentation</b>: 29 D antigen unit(s)<span style=\"background: LightGoldenRodYellow\"> (Details: Unit of Measurement EMA  code100000110782 = 'D antigen unit(s)')</span>/0.5 millilitre(s)<span style=\"background: LightGoldenRodYellow\"> (Details: Unit of Measurement EMA  code100000110662 = 'millilitre(s)')</span></p><blockquote><p><b>referenceStrength</b></p><h3>Substances</h3><table class=\"grid\"><tr><td style=\"display: none\">-</td><td><b>Concept</b></td></tr><tr><td style=\"display: none\">*</td><td><span title=\"Codes:{https://spor.ema.europa.eu/v2/SubstanceDefinition 100000089279}\">Poliovirus (inactivated) type 1 (Mahoney strain)</span></td></tr></table><p><b>strength</b>: 29 D antigen unit(s)<span style=\"background: LightGoldenRodYellow\"> (Details: Unit of Measurement EMA  code100000110782 = 'D antigen unit(s)')</span>/0.5 millilitre(s)<span style=\"background: LightGoldenRodYellow\"> (Details: Unit of Measurement EMA  code100000110662 = 'millilitre(s)')</span></p></blockquote></blockquote></blockquote></div>"
      },
      "status" : "active",
      "for" : [{
        "reference" : "MedicinalProductDefinition/ImovaxPolio-EE-IS-MedicinalProductDefinition"
      },
      {
        "reference" : "ManufacturedItemDefinition/ImovaxPolio-EE-IS-ManufacturedItemDefinition"
      },
      {
        "reference" : "AdministrableProductDefinition/ImovaxPolio-EE-IS-AdminProdDef"
      }],
      "role" : {
        "coding" : [{
          "system" : "https://spor.ema.europa.eu/v1/lists/100000072050",
          "code" : "100000072072",
          "display" : "Active"
        }]
      },
      "substance" : {
        "code" : {
          "concept" : {
            "coding" : [{
              "system" : "https://spor.ema.europa.eu/v2/SubstanceDefinition",
              "code" : "100000089279",
              "display" : "Poliovirus (inactivated) type 1 (Mahoney strain)"
            }]
          }
        },
        "strength" : [{
          "presentationRatio" : {
            "numerator" : {
              "value" : 29,
              "unit" : "D antigen unit(s)",
              "system" : "https://spor.ema.europa.eu/v1/lists/100000110633",
              "code" : "100000110782"
            },
            "denominator" : {
              "value" : 0.5,
              "unit" : "millilitre(s)",
              "system" : "https://spor.ema.europa.eu/v1/lists/100000110633",
              "code" : "100000110662"
            }
          },
          "referenceStrength" : [{
            "substance" : {
              "concept" : {
                "coding" : [{
                  "system" : "https://spor.ema.europa.eu/v2/SubstanceDefinition",
                  "code" : "100000089279",
                  "display" : "Poliovirus (inactivated) type 1 (Mahoney strain)"
                }]
              }
            },
            "strengthRatio" : {
              "numerator" : {
                "value" : 29,
                "unit" : "D antigen unit(s)",
                "system" : "https://spor.ema.europa.eu/v1/lists/100000110633",
                "code" : "100000110782"
              },
              "denominator" : {
                "value" : 0.5,
                "unit" : "millilitre(s)",
                "system" : "https://spor.ema.europa.eu/v1/lists/100000110633",
                "code" : "100000110662"
              }
            }
          }]
        }]
      }
    }
  },
  {
    "fullUrl" : "https://hl7-eu.github.io/unicom-ig/branches/mpd-r4b/Ingredient-ImovaxPolio-EE-IS-Ingredient-2",
    "resource" : {
      "resourceType" : "Ingredient",
      "id" : "ImovaxPolio-EE-IS-Ingredient-2",
      "meta" : {
        "profile" : ["http://unicom-project.eu/fhir/StructureDefinition/PPLIngredient"]
      },
      "text" : {
        "status" : "generated",
        "div" : "<div xmlns=\"http://www.w3.org/1999/xhtml\"><a name=\"Ingredient_ImovaxPolio-EE-IS-Ingredient-2\"> </a><p class=\"res-header-id\"><b>Generated Narrative: Ingredient ImovaxPolio-EE-IS-Ingredient-2</b></p><a name=\"ImovaxPolio-EE-IS-Ingredient-2\"> </a><a name=\"hcImovaxPolio-EE-IS-Ingredient-2\"> </a><a name=\"ImovaxPolio-EE-IS-Ingredient-2-en-US\"> </a><p><b>status</b>: Active</p><p><b>for</b>: </p><ul><li><a href=\"Bundle-017-ImovaxPolio-EE-FullProduct.html#MedicinalProductDefinition_ImovaxPolio-EE-IS-MedicinalProductDefinition\">Bundle: type = collection</a></li><li><a href=\"Bundle-017-ImovaxPolio-EE-FullProduct.html#ManufacturedItemDefinition_ImovaxPolio-EE-IS-ManufacturedItemDefinition\">Bundle: type = collection</a></li><li><a href=\"Bundle-017-ImovaxPolio-EE-FullProduct.html#AdministrableProductDefinition_ImovaxPolio-EE-IS-AdminProdDef\">Bundle: type = collection</a></li></ul><p><b>role</b>: <span title=\"Codes:{https://spor.ema.europa.eu/v1/lists/100000072050 100000072072}\">Active</span></p><blockquote><p><b>substance</b></p><h3>Codes</h3><table class=\"grid\"><tr><td style=\"display: none\">-</td><td><b>Concept</b></td></tr><tr><td style=\"display: none\">*</td><td><span title=\"Codes:{https://spor.ema.europa.eu/v2/SubstanceDefinition 100000089268}\">Poliovirus (inactivated) type 2 (MEF-1 strain)</span></td></tr></table><blockquote><p><b>strength</b></p><p><b>presentation</b>: 7 D antigen unit(s)<span style=\"background: LightGoldenRodYellow\"> (Details: Unit of Measurement EMA  code100000110782 = 'D antigen unit(s)')</span>/0.5 millilitre(s)<span style=\"background: LightGoldenRodYellow\"> (Details: Unit of Measurement EMA  code100000110662 = 'millilitre(s)')</span></p><blockquote><p><b>referenceStrength</b></p><h3>Substances</h3><table class=\"grid\"><tr><td style=\"display: none\">-</td><td><b>Concept</b></td></tr><tr><td style=\"display: none\">*</td><td><span title=\"Codes:{https://spor.ema.europa.eu/v2/SubstanceDefinition 100000089268}\">Poliovirus (inactivated) type 2 (MEF-1 strain)</span></td></tr></table><p><b>strength</b>: 7 D antigen unit(s)<span style=\"background: LightGoldenRodYellow\"> (Details: Unit of Measurement EMA  code100000110782 = 'D antigen unit(s)')</span>/0.5 millilitre(s)<span style=\"background: LightGoldenRodYellow\"> (Details: Unit of Measurement EMA  code100000110662 = 'millilitre(s)')</span></p></blockquote></blockquote></blockquote></div>"
      },
      "status" : "active",
      "for" : [{
        "reference" : "MedicinalProductDefinition/ImovaxPolio-EE-IS-MedicinalProductDefinition"
      },
      {
        "reference" : "ManufacturedItemDefinition/ImovaxPolio-EE-IS-ManufacturedItemDefinition"
      },
      {
        "reference" : "AdministrableProductDefinition/ImovaxPolio-EE-IS-AdminProdDef"
      }],
      "role" : {
        "coding" : [{
          "system" : "https://spor.ema.europa.eu/v1/lists/100000072050",
          "code" : "100000072072",
          "display" : "Active"
        }]
      },
      "substance" : {
        "code" : {
          "concept" : {
            "coding" : [{
              "system" : "https://spor.ema.europa.eu/v2/SubstanceDefinition",
              "code" : "100000089268",
              "display" : "Poliovirus (inactivated) type 2 (MEF-1 strain)"
            }]
          }
        },
        "strength" : [{
          "presentationRatio" : {
            "numerator" : {
              "value" : 7,
              "unit" : "D antigen unit(s)",
              "system" : "https://spor.ema.europa.eu/v1/lists/100000110633",
              "code" : "100000110782"
            },
            "denominator" : {
              "value" : 0.5,
              "unit" : "millilitre(s)",
              "system" : "https://spor.ema.europa.eu/v1/lists/100000110633",
              "code" : "100000110662"
            }
          },
          "referenceStrength" : [{
            "substance" : {
              "concept" : {
                "coding" : [{
                  "system" : "https://spor.ema.europa.eu/v2/SubstanceDefinition",
                  "code" : "100000089268",
                  "display" : "Poliovirus (inactivated) type 2 (MEF-1 strain)"
                }]
              }
            },
            "strengthRatio" : {
              "numerator" : {
                "value" : 7,
                "unit" : "D antigen unit(s)",
                "system" : "https://spor.ema.europa.eu/v1/lists/100000110633",
                "code" : "100000110782"
              },
              "denominator" : {
                "value" : 0.5,
                "unit" : "millilitre(s)",
                "system" : "https://spor.ema.europa.eu/v1/lists/100000110633",
                "code" : "100000110662"
              }
            }
          }]
        }]
      }
    }
  },
  {
    "fullUrl" : "https://hl7-eu.github.io/unicom-ig/branches/mpd-r4b/Ingredient-ImovaxPolio-EE-IS-Ingredient-3",
    "resource" : {
      "resourceType" : "Ingredient",
      "id" : "ImovaxPolio-EE-IS-Ingredient-3",
      "meta" : {
        "profile" : ["http://unicom-project.eu/fhir/StructureDefinition/PPLIngredient"]
      },
      "text" : {
        "status" : "generated",
        "div" : "<div xmlns=\"http://www.w3.org/1999/xhtml\"><a name=\"Ingredient_ImovaxPolio-EE-IS-Ingredient-3\"> </a><p class=\"res-header-id\"><b>Generated Narrative: Ingredient ImovaxPolio-EE-IS-Ingredient-3</b></p><a name=\"ImovaxPolio-EE-IS-Ingredient-3\"> </a><a name=\"hcImovaxPolio-EE-IS-Ingredient-3\"> </a><a name=\"ImovaxPolio-EE-IS-Ingredient-3-en-US\"> </a><p><b>status</b>: Active</p><p><b>for</b>: </p><ul><li><a href=\"Bundle-017-ImovaxPolio-EE-FullProduct.html#MedicinalProductDefinition_ImovaxPolio-EE-IS-MedicinalProductDefinition\">Bundle: type = collection</a></li><li><a href=\"Bundle-017-ImovaxPolio-EE-FullProduct.html#ManufacturedItemDefinition_ImovaxPolio-EE-IS-ManufacturedItemDefinition\">Bundle: type = collection</a></li><li><a href=\"Bundle-017-ImovaxPolio-EE-FullProduct.html#AdministrableProductDefinition_ImovaxPolio-EE-IS-AdminProdDef\">Bundle: type = collection</a></li></ul><p><b>role</b>: <span title=\"Codes:{https://spor.ema.europa.eu/v1/lists/100000072050 100000072072}\">Active</span></p><blockquote><p><b>substance</b></p><h3>Codes</h3><table class=\"grid\"><tr><td style=\"display: none\">-</td><td><b>Concept</b></td></tr><tr><td style=\"display: none\">*</td><td><span title=\"Codes:{https://spor.ema.europa.eu/v2/SubstanceDefinition 100000089267}\">Poliovirus (inactivated) type 3 (Saukett strain)</span></td></tr></table><blockquote><p><b>strength</b></p><p><b>presentation</b>: 26 D antigen unit(s)<span style=\"background: LightGoldenRodYellow\"> (Details: Unit of Measurement EMA  code100000110782 = 'D antigen unit(s)')</span>/0.5 millilitre(s)<span style=\"background: LightGoldenRodYellow\"> (Details: Unit of Measurement EMA  code100000110662 = 'millilitre(s)')</span></p><blockquote><p><b>referenceStrength</b></p><h3>Substances</h3><table class=\"grid\"><tr><td style=\"display: none\">-</td><td><b>Concept</b></td></tr><tr><td style=\"display: none\">*</td><td><span title=\"Codes:{https://spor.ema.europa.eu/v2/SubstanceDefinition 100000089267}\">Poliovirus (inactivated) type 3 (Saukett strain)</span></td></tr></table><p><b>strength</b>: 26 D antigen unit(s)<span style=\"background: LightGoldenRodYellow\"> (Details: Unit of Measurement EMA  code100000110782 = 'D antigen unit(s)')</span>/0.5 millilitre(s)<span style=\"background: LightGoldenRodYellow\"> (Details: Unit of Measurement EMA  code100000110662 = 'millilitre(s)')</span></p></blockquote></blockquote></blockquote></div>"
      },
      "status" : "active",
      "for" : [{
        "reference" : "MedicinalProductDefinition/ImovaxPolio-EE-IS-MedicinalProductDefinition"
      },
      {
        "reference" : "ManufacturedItemDefinition/ImovaxPolio-EE-IS-ManufacturedItemDefinition"
      },
      {
        "reference" : "AdministrableProductDefinition/ImovaxPolio-EE-IS-AdminProdDef"
      }],
      "role" : {
        "coding" : [{
          "system" : "https://spor.ema.europa.eu/v1/lists/100000072050",
          "code" : "100000072072",
          "display" : "Active"
        }]
      },
      "substance" : {
        "code" : {
          "concept" : {
            "coding" : [{
              "system" : "https://spor.ema.europa.eu/v2/SubstanceDefinition",
              "code" : "100000089267",
              "display" : "Poliovirus (inactivated) type 3 (Saukett strain)"
            }]
          }
        },
        "strength" : [{
          "presentationRatio" : {
            "numerator" : {
              "value" : 26,
              "unit" : "D antigen unit(s)",
              "system" : "https://spor.ema.europa.eu/v1/lists/100000110633",
              "code" : "100000110782"
            },
            "denominator" : {
              "value" : 0.5,
              "unit" : "millilitre(s)",
              "system" : "https://spor.ema.europa.eu/v1/lists/100000110633",
              "code" : "100000110662"
            }
          },
          "referenceStrength" : [{
            "substance" : {
              "concept" : {
                "coding" : [{
                  "system" : "https://spor.ema.europa.eu/v2/SubstanceDefinition",
                  "code" : "100000089267",
                  "display" : "Poliovirus (inactivated) type 3 (Saukett strain)"
                }]
              }
            },
            "strengthRatio" : {
              "numerator" : {
                "value" : 26,
                "unit" : "D antigen unit(s)",
                "system" : "https://spor.ema.europa.eu/v1/lists/100000110633",
                "code" : "100000110782"
              },
              "denominator" : {
                "value" : 0.5,
                "unit" : "millilitre(s)",
                "system" : "https://spor.ema.europa.eu/v1/lists/100000110633",
                "code" : "100000110662"
              }
            }
          }]
        }]
      }
    }
  }]
}