<?xml version="1.0" encoding="UTF-8"?>

<Bundle xmlns="http://hl7.org/fhir">
  <id value="Norvasc-10mg-Tablet-SE-IS-MedicinalProductDefinition-BBDL"/>
  <type value="collection"/>
  <entry>
    <fullUrl value="https://hl7-eu.github.io/unicom-ig/branches/mpd-r4b/MedicinalProductDefinition/Norvasc-10mg-Tablet-SE-IS-MedicinalProductDefinition"/>
    <resource>
      <MedicinalProductDefinition>
        <id value="Norvasc-10mg-Tablet-SE-IS-MedicinalProductDefinition"/>
        <meta>
          <profile value="http://unicom-project.eu/fhir/StructureDefinition/PPLMedicinalProductDefinition"/>
        </meta>
        <text>
          <status value="generated"/><div xmlns="http://www.w3.org/1999/xhtml"><a name="MedicinalProductDefinition_Norvasc-10mg-Tablet-SE-IS-MedicinalProductDefinition"> </a><p class="res-header-id"><b>Generated Narrative: MedicinalProductDefinition Norvasc-10mg-Tablet-SE-IS-MedicinalProductDefinition</b></p><a name="Norvasc-10mg-Tablet-SE-IS-MedicinalProductDefinition"> </a><a name="hcNorvasc-10mg-Tablet-SE-IS-MedicinalProductDefinition"> </a><a name="Norvasc-10mg-Tablet-SE-IS-MedicinalProductDefinition-en-US"> </a><p><b>identifier</b>: <code>http://ema.europa.eu/fhir/mpId</code>/SE-100023206-00011288</p><p><b>domain</b>: <span title="Codes:{https://spor.ema.europa.eu/v1/lists/100000000004 100000000012}">Human use</span></p><p><b>status</b>: <span title="Codes:{https://spor.ema.europa.eu/v1/lists/200000005003 200000005004}">Current</span></p><p><b>combinedPharmaceuticalDoseForm</b>: <span title="Codes:{https://spor.ema.europa.eu/v1/lists/200000000004 100000073664}">Tablet</span></p><p><b>indication</b>: </p><div><p>Hypertoni Kronisk stabil anginga pectoris Vasospastisk (Prinzmetals) angina</p>
</div><p><b>legalStatusOfSupply</b>: <span title="Codes:{https://spor.ema.europa.eu/v1/lists/100000072051 100000072084}">Medicinal product subject to medical prescription</span></p><p><b>classification</b>: <span title="Codes:{https://spor.ema.europa.eu/v1/lists/100000093533 100000095065}">amlodipine</span>, <span title="Codes:{http://www.whocc.no/atc C08CA01}">amlodipine</span></p><blockquote><p><b>name</b></p><p><b>productName</b>: Norvasc速 10 mg Tablett</p><blockquote><p><b>part</b></p><p><b>part</b>: Norvasc速</p><p><b>type</b>: <span title="Codes:{https://spor.ema.europa.eu/v1/lists/220000000000 220000000002}">Invented name part</span></p></blockquote><blockquote><p><b>part</b></p><p><b>part</b>: 10 mg</p><p><b>type</b>: <span title="Codes:{https://spor.ema.europa.eu/v1/lists/220000000000 220000000004}">Strength part</span></p></blockquote><blockquote><p><b>part</b></p><p><b>part</b>: Tablett</p><p><b>type</b>: <span title="Codes:{https://spor.ema.europa.eu/v1/lists/220000000000 220000000005}">Pharmaceutical dose form part</span></p></blockquote><h3>Usages</h3><table class="grid"><tr><td style="display: none">-</td><td><b>Country</b></td><td><b>Language</b></td></tr><tr><td style="display: none">*</td><td><span title="Codes:{https://spor.ema.europa.eu/v1/lists/100000000002 100000000535}">Kingdom of Sweden</span></td><td><span title="Codes:{urn:ietf:bcp:47 sv}">Swedish</span></td></tr></table></blockquote></div>
        </text>
        <identifier>
          <system value="http://ema.europa.eu/fhir/mpId"/>
          <value value="SE-100023206-00011288"/>
        </identifier>
        <domain>
          <coding>
            <system value="https://spor.ema.europa.eu/v1/lists/100000000004"/>
            <code value="100000000012"/>
            <display value="Human use"/>
          </coding>
        </domain>
        <status>
          <coding>
            <system value="https://spor.ema.europa.eu/v1/lists/200000005003"/>
            <code value="200000005004"/>
            <display value="Current"/>
          </coding>
        </status>
        <combinedPharmaceuticalDoseForm>
          <coding>
            <system value="https://spor.ema.europa.eu/v1/lists/200000000004"/>
            <code value="100000073664"/>
            <display value="Tablet"/>
          </coding>
        </combinedPharmaceuticalDoseForm>
        <indication value="Hypertoni Kronisk stabil anginga pectoris Vasospastisk (Prinzmetals) angina"/>
        <legalStatusOfSupply>
          <coding>
            <system value="https://spor.ema.europa.eu/v1/lists/100000072051"/>
            <code value="100000072084"/>
            <display value="Medicinal product subject to medical prescription"/>
          </coding>
        </legalStatusOfSupply>
        <classification>
          <coding>
            <system value="https://spor.ema.europa.eu/v1/lists/100000093533"/>
            <code value="100000095065"/>
            <display value="amlodipine"/>
          </coding>
        </classification>
        <classification>
          <coding>
            <system value="http://www.whocc.no/atc"/>
            <code value="C08CA01"/>
            <display value="amlodipine"/>
          </coding>
        </classification>
        <name>
          <productName value="Norvasc速 10 mg Tablett"/>
          <part>
            <part value="Norvasc速"/>
            <type>
              <coding>
                <system value="https://spor.ema.europa.eu/v1/lists/220000000000"/>
                <code value="220000000002"/>
                <display value="Invented name part"/>
              </coding>
            </type>
          </part>
          <part>
            <part value="10 mg"/>
            <type>
              <coding>
                <system value="https://spor.ema.europa.eu/v1/lists/220000000000"/>
                <code value="220000000004"/>
                <display value="Strength part"/>
              </coding>
            </type>
          </part>
          <part>
            <part value="Tablett"/>
            <type>
              <coding>
                <system value="https://spor.ema.europa.eu/v1/lists/220000000000"/>
                <code value="220000000005"/>
                <display value="Pharmaceutical dose form part"/>
              </coding>
            </type>
          </part>
          <usage>
            <country>
              <coding>
                <system value="https://spor.ema.europa.eu/v1/lists/100000000002"/>
                <code value="100000000535"/>
                <display value="Kingdom of Sweden"/>
              </coding>
            </country>
            <language>
              <coding>
                <system value="urn:ietf:bcp:47"/>
                <code value="sv"/>
                <display value="Swedish"/>
              </coding>
            </language>
          </usage>
        </name>
      </MedicinalProductDefinition>
    </resource>
  </entry>
  <entry>
    <fullUrl value="https://hl7-eu.github.io/unicom-ig/branches/mpd-r4b/AdministrableProductDefinition/Norvasc-10mg-Tablet-SE-IS-AdministrableProductDefinition"/>
    <resource>
      <AdministrableProductDefinition>
        <id value="Norvasc-10mg-Tablet-SE-IS-AdministrableProductDefinition"/>
        <meta>
          <profile value="http://unicom-project.eu/fhir/StructureDefinition/PPLAdministrableProductDefinition"/>
        </meta>
        <text>
          <status value="generated"/><div xmlns="http://www.w3.org/1999/xhtml"><a name="AdministrableProductDefinition_Norvasc-10mg-Tablet-SE-IS-AdministrableProductDefinition"> </a><p class="res-header-id"><b>Generated Narrative: AdministrableProductDefinition Norvasc-10mg-Tablet-SE-IS-AdministrableProductDefinition</b></p><a name="Norvasc-10mg-Tablet-SE-IS-AdministrableProductDefinition"> </a><a name="hcNorvasc-10mg-Tablet-SE-IS-AdministrableProductDefinition"> </a><a name="Norvasc-10mg-Tablet-SE-IS-AdministrableProductDefinition-en-US"> </a><p><b>status</b>: Active</p><p><b>formOf</b>: <a href="Bundle-Norvasc-10mg-Tablet-SE-IS-MedicinalProductDefinition-BBDL.html#MedicinalProductDefinition_Norvasc-10mg-Tablet-SE-IS-MedicinalProductDefinition">Bundle: type = collection</a></p><p><b>administrableDoseForm</b>: <span title="Codes:{https://spor.ema.europa.eu/v1/lists/200000000004 100000073664}">Tablet</span></p><p><b>unitOfPresentation</b>: <span title="Codes:{https://spor.ema.europa.eu/v1/lists/200000000014 200000002152}">Tablet</span></p><p><b>producedFrom</b>: <a href="Bundle-Norvasc-10mg-Tablet-SE-IS-MedicinalProductDefinition-BBDL.html#ManufacturedItemDefinition_Norvasc-10mg-Tablet-SE-IS-ManufacturedItemDefinition">Bundle: type = collection</a></p><h3>RouteOfAdministrations</h3><table class="grid"><tr><td style="display: none">-</td><td><b>Code</b></td></tr><tr><td style="display: none">*</td><td><span title="Codes:{https://spor.ema.europa.eu/v1/lists/100000073345 100000073619}">Oral use</span></td></tr></table></div>
        </text>
        <status value="active"/>
        <formOf>
          <reference value="MedicinalProductDefinition/Norvasc-10mg-Tablet-SE-IS-MedicinalProductDefinition"/>
        </formOf>
        <administrableDoseForm>
          <coding>
            <system value="https://spor.ema.europa.eu/v1/lists/200000000004"/>
            <code value="100000073664"/>
            <display value="Tablet"/>
          </coding>
        </administrableDoseForm>
        <unitOfPresentation>
          <coding>
            <system value="https://spor.ema.europa.eu/v1/lists/200000000014"/>
            <code value="200000002152"/>
            <display value="Tablet"/>
          </coding>
        </unitOfPresentation>
        <producedFrom>
          <reference value="ManufacturedItemDefinition/Norvasc-10mg-Tablet-SE-IS-ManufacturedItemDefinition"/>
        </producedFrom>
        <routeOfAdministration>
          <code>
            <coding>
              <system value="https://spor.ema.europa.eu/v1/lists/100000073345"/>
              <code value="100000073619"/>
              <display value="Oral use"/>
            </coding>
          </code>
        </routeOfAdministration>
      </AdministrableProductDefinition>
    </resource>
  </entry>
  <entry>
    <fullUrl value="https://hl7-eu.github.io/unicom-ig/branches/mpd-r4b/RegulatedAuthorization/Norvasc-10mg-Tablet-SE-IS-RegulatedAuthorization"/>
    <resource>
      <RegulatedAuthorization>
        <id value="Norvasc-10mg-Tablet-SE-IS-RegulatedAuthorization"/>
        <meta>
          <profile value="http://unicom-project.eu/fhir/StructureDefinition/PPLRegulatedAuthorization"/>
        </meta>
        <text>
          <status value="generated"/><div xmlns="http://www.w3.org/1999/xhtml"><a name="RegulatedAuthorization_Norvasc-10mg-Tablet-SE-IS-RegulatedAuthorization"> </a><p class="res-header-id"><b>Generated Narrative: RegulatedAuthorization Norvasc-10mg-Tablet-SE-IS-RegulatedAuthorization</b></p><a name="Norvasc-10mg-Tablet-SE-IS-RegulatedAuthorization"> </a><a name="hcNorvasc-10mg-Tablet-SE-IS-RegulatedAuthorization"> </a><a name="Norvasc-10mg-Tablet-SE-IS-RegulatedAuthorization-en-US"> </a><p><b>identifier</b>: 11288</p><p><b>subject</b>: <a href="Bundle-Norvasc-10mg-Tablet-SE-IS-MedicinalProductDefinition-BBDL.html#MedicinalProductDefinition_Norvasc-10mg-Tablet-SE-IS-MedicinalProductDefinition">Bundle: type = collection</a></p><p><b>type</b>: <span title="Codes:{https://spor.ema.europa.eu/v1/lists/220000000060 220000000061}">Marketing Authorisation</span></p><p><b>region</b>: <span title="Codes:{https://spor.ema.europa.eu/v1/lists/100000000002 100000000535}">Kingdom of Sweden</span></p><p><b>status</b>: <span title="Codes:{https://spor.ema.europa.eu/v1/lists/100000072049 100000072099}">Valid</span></p><p><b>statusDate</b>: 1991-01-18</p><p><b>holder</b>: <a href="Bundle-Norvasc-10mg-Tablet-SE-IS-MedicinalProductDefinition-BBDL.html#Organization_LOC-100032008-UpjohnEESV">Bundle: type = collection</a></p></div>
        </text>
        <identifier>
          <value value="11288"/>
        </identifier>
        <subject>
          <reference value="MedicinalProductDefinition/Norvasc-10mg-Tablet-SE-IS-MedicinalProductDefinition"/>
        </subject>
        <type>
          <coding>
            <system value="https://spor.ema.europa.eu/v1/lists/220000000060"/>
            <code value="220000000061"/>
            <display value="Marketing Authorisation"/>
          </coding>
        </type>
        <region>
          <coding>
            <system value="https://spor.ema.europa.eu/v1/lists/100000000002"/>
            <code value="100000000535"/>
            <display value="Kingdom of Sweden"/>
          </coding>
        </region>
        <status>
          <coding>
            <system value="https://spor.ema.europa.eu/v1/lists/100000072049"/>
            <code value="100000072099"/>
            <display value="Valid"/>
          </coding>
        </status>
        <statusDate value="1991-01-18"/>
        <holder>
          <reference value="Organization/LOC-100032008-UpjohnEESV"/>
        </holder>
      </RegulatedAuthorization>
    </resource>
  </entry>
  <entry>
    <fullUrl value="https://hl7-eu.github.io/unicom-ig/branches/mpd-r4b/Organization-LOC-100032008-UpjohnEESV"/>
    <resource>
      <Organization>
        <id value="LOC-100032008-UpjohnEESV"/>
        <meta>
          <profile value="http://unicom-project.eu/fhir/StructureDefinition/PPLOrganization"/>
        </meta>
        <text>
          <status value="generated"/><div xmlns="http://www.w3.org/1999/xhtml"><a name="Organization_LOC-100032008-UpjohnEESV"> </a><p class="res-header-id"><b>Generated Narrative: Organization LOC-100032008-UpjohnEESV</b></p><a name="LOC-100032008-UpjohnEESV"> </a><a name="hcLOC-100032008-UpjohnEESV"> </a><a name="LOC-100032008-UpjohnEESV-en-US"> </a><p><b>identifier</b>: <code>https://spor.ema.europa.eu/v1/locations</code>/LOC-100032008</p><p><b>name</b>: Upjohn EESV</p></div>
        </text>
        <identifier>
          <system value="https://spor.ema.europa.eu/v1/locations"/>
          <value value="LOC-100032008"/>
        </identifier>
        <name value="Upjohn EESV"/>
      </Organization>
    </resource>
  </entry>
  <entry>
    <fullUrl value="https://hl7-eu.github.io/unicom-ig/branches/mpd-r4b/PackagedProductDefinition/Norvasc-10mg-Tablet-SE-IS-PackagedProductDefinition"/>
    <resource>
      <PackagedProductDefinition>
        <id value="Norvasc-10mg-Tablet-SE-IS-PackagedProductDefinition"/>
        <meta>
          <profile value="http://unicom-project.eu/fhir/StructureDefinition/PPLPackagedProductDefinition"/>
        </meta>
        <text>
          <status value="generated"/><div xmlns="http://www.w3.org/1999/xhtml"><a name="PackagedProductDefinition_Norvasc-10mg-Tablet-SE-IS-PackagedProductDefinition"> </a><p class="res-header-id"><b>Generated Narrative: PackagedProductDefinition Norvasc-10mg-Tablet-SE-IS-PackagedProductDefinition</b></p><a name="Norvasc-10mg-Tablet-SE-IS-PackagedProductDefinition"> </a><a name="hcNorvasc-10mg-Tablet-SE-IS-PackagedProductDefinition"> </a><a name="Norvasc-10mg-Tablet-SE-IS-PackagedProductDefinition-en-US"> </a><p><b>identifier</b>: <code>http://ema.europa.eu/example/pcid</code>/?ngen-9?</p><p><b>packageFor</b>: <a href="Bundle-Norvasc-10mg-Tablet-SE-IS-MedicinalProductDefinition-BBDL.html#MedicinalProductDefinition_Norvasc-10mg-Tablet-SE-IS-MedicinalProductDefinition">Bundle: type = collection</a></p><p><b>containedItemQuantity</b>: 98 Tablet<span style="background: LightGoldenRodYellow"> (Details: Unit of Presentation EMA  code200000002152 = 'Tablet')</span></p><p><b>description</b>: </p><div><p>Blister, 98 tabletter (kalenderf旦rpackning)</p>
</div><h3>MarketingStatuses</h3><table class="grid"><tr><td style="display: none">-</td><td><b>Country</b></td><td><b>Status</b></td></tr><tr><td style="display: none">*</td><td><span title="Codes:{https://spor.ema.europa.eu/v1/lists/100000000002 100000000535}">Kingdom of Sweden</span></td><td><span title="Codes:{https://spor.ema.europa.eu/v1/lists/100000072052 100000072083}">Marketed</span></td></tr></table><blockquote><p><b>packaging</b></p><p><b>type</b>: <span title="Codes:{https://spor.ema.europa.eu/v1/lists/100000073346 100000073498}">Box</span></p><p><b>quantity</b>: 1</p><p><b>material</b>: <span title="Codes:{https://spor.ema.europa.eu/v1/lists/200000003199 200000003529}">Cardboard</span></p><blockquote><p><b>packaging</b></p></blockquote></blockquote></div>
        </text>
        <identifier>
          <system value="http://ema.europa.eu/example/pcid"/>
        </identifier>
        <packageFor>
          <reference value="MedicinalProductDefinition/Norvasc-10mg-Tablet-SE-IS-MedicinalProductDefinition"/>
        </packageFor>
        <containedItemQuantity>
          <value value="98"/>
          <unit value="Tablet"/>
          <system value="https://spor.ema.europa.eu/v1/lists/200000000014"/>
          <code value="200000002152"/>
        </containedItemQuantity>
        <description value="Blister, 98 tabletter (kalenderf旦rpackning)"/>
        <marketingStatus>
          <country>
            <coding>
              <system value="https://spor.ema.europa.eu/v1/lists/100000000002"/>
              <code value="100000000535"/>
              <display value="Kingdom of Sweden"/>
            </coding>
          </country>
          <status>
            <coding>
              <system value="https://spor.ema.europa.eu/v1/lists/100000072052"/>
              <code value="100000072083"/>
              <display value="Marketed"/>
            </coding>
          </status>
        </marketingStatus>
        <packaging>
          <type>
            <coding>
              <system value="https://spor.ema.europa.eu/v1/lists/100000073346"/>
              <code value="100000073498"/>
              <display value="Box"/>
            </coding>
          </type>
          <quantity value="1"/>
          <material>
            <coding>
              <system value="https://spor.ema.europa.eu/v1/lists/200000003199"/>
              <code value="200000003529"/>
              <display value="Cardboard"/>
            </coding>
          </material>
          <packaging>
            <type>
              <coding>
                <system value="https://spor.ema.europa.eu/v1/lists/100000073346"/>
                <code value="100000073496"/>
                <display value="Blister"/>
              </coding>
            </type>
            <quantity value="7"/>
            <material>
              <coding>
                <system value="https://spor.ema.europa.eu/v1/lists/200000003199"/>
                <code value="200000003222"/>
                <display value="PolyVinyl Chloride"/>
              </coding>
            </material>
            <material>
              <coding>
                <system value="https://spor.ema.europa.eu/v1/lists/200000003199"/>
                <code value="200000003225"/>
                <display value="PolyVinylidene Chloride"/>
              </coding>
            </material>
            <material>
              <coding>
                <system value="https://spor.ema.europa.eu/v1/lists/200000003199"/>
                <code value="200000003200"/>
                <display value="Aluminium"/>
              </coding>
            </material>
            <containedItem>
              <item>
                <reference>
                  <reference value="ManufacturedItemDefinition/Norvasc-10mg-Tablet-SE-IS-ManufacturedItemDefinition"/>
                </reference>
              </item>
              <amount>
                <value value="14"/>
                <unit value="Tablet"/>
                <system value="https://spor.ema.europa.eu/v1/lists/200000000014"/>
                <code value="200000002152"/>
              </amount>
            </containedItem>
          </packaging>
        </packaging>
      </PackagedProductDefinition>
    </resource>
  </entry>
  <entry>
    <fullUrl value="https://hl7-eu.github.io/unicom-ig/branches/mpd-r4b/ManufacturedItemDefinition/Norvasc-10mg-Tablet-SE-IS-ManufacturedItemDefinition"/>
    <resource>
      <ManufacturedItemDefinition>
        <id value="Norvasc-10mg-Tablet-SE-IS-ManufacturedItemDefinition"/>
        <meta>
          <profile value="http://unicom-project.eu/fhir/StructureDefinition/PPLManufacturedItemDefinition"/>
        </meta>
        <text>
          <status value="generated"/><div xmlns="http://www.w3.org/1999/xhtml"><a name="ManufacturedItemDefinition_Norvasc-10mg-Tablet-SE-IS-ManufacturedItemDefinition"> </a><p class="res-header-id"><b>Generated Narrative: ManufacturedItemDefinition Norvasc-10mg-Tablet-SE-IS-ManufacturedItemDefinition</b></p><a name="Norvasc-10mg-Tablet-SE-IS-ManufacturedItemDefinition"> </a><a name="hcNorvasc-10mg-Tablet-SE-IS-ManufacturedItemDefinition"> </a><a name="Norvasc-10mg-Tablet-SE-IS-ManufacturedItemDefinition-en-US"> </a><p><b>status</b>: Active</p><p><b>manufacturedDoseForm</b>: <span title="Codes:{https://spor.ema.europa.eu/v1/lists/200000000004 100000073664}">Tablet</span></p><p><b>unitOfPresentation</b>: <span title="Codes:{https://spor.ema.europa.eu/v1/lists/200000000014 200000002152}">Tablet</span></p></div>
        </text>
        <status value="active"/>
        <manufacturedDoseForm>
          <coding>
            <system value="https://spor.ema.europa.eu/v1/lists/200000000004"/>
            <code value="100000073664"/>
            <display value="Tablet"/>
          </coding>
        </manufacturedDoseForm>
        <unitOfPresentation>
          <coding>
            <system value="https://spor.ema.europa.eu/v1/lists/200000000014"/>
            <code value="200000002152"/>
            <display value="Tablet"/>
          </coding>
        </unitOfPresentation>
      </ManufacturedItemDefinition>
    </resource>
  </entry>
  <entry>
    <fullUrl value="https://hl7-eu.github.io/unicom-ig/branches/mpd-r4b/Ingredient/Norvasc-10mg-Tablet-SE-IS-Ingredient"/>
    <resource>
      <Ingredient>
        <id value="Norvasc-10mg-Tablet-SE-IS-Ingredient"/>
        <meta>
          <profile value="http://unicom-project.eu/fhir/StructureDefinition/PPLIngredient"/>
        </meta>
        <text>
          <status value="generated"/><div xmlns="http://www.w3.org/1999/xhtml"><a name="Ingredient_Norvasc-10mg-Tablet-SE-IS-Ingredient"> </a><p class="res-header-id"><b>Generated Narrative: Ingredient Norvasc-10mg-Tablet-SE-IS-Ingredient</b></p><a name="Norvasc-10mg-Tablet-SE-IS-Ingredient"> </a><a name="hcNorvasc-10mg-Tablet-SE-IS-Ingredient"> </a><a name="Norvasc-10mg-Tablet-SE-IS-Ingredient-en-US"> </a><p><b>status</b>: Active</p><p><b>for</b>: </p><ul><li><a href="Bundle-Norvasc-10mg-Tablet-SE-IS-MedicinalProductDefinition-BBDL.html#MedicinalProductDefinition_Norvasc-10mg-Tablet-SE-IS-MedicinalProductDefinition">Bundle: type = collection</a></li><li><a href="Bundle-Norvasc-10mg-Tablet-SE-IS-MedicinalProductDefinition-BBDL.html#ManufacturedItemDefinition_Norvasc-10mg-Tablet-SE-IS-ManufacturedItemDefinition">Bundle: type = collection</a></li><li><a href="Bundle-Norvasc-10mg-Tablet-SE-IS-MedicinalProductDefinition-BBDL.html#AdministrableProductDefinition_Norvasc-10mg-Tablet-SE-IS-AdministrableProductDefinition">Bundle: type = collection</a></li></ul><p><b>role</b>: <span title="Codes:{https://spor.ema.europa.eu/v1/lists/100000072050 100000072072}">Active</span></p><blockquote><p><b>substance</b></p><h3>Codes</h3><table class="grid"><tr><td style="display: none">-</td><td><b>Concept</b></td></tr><tr><td style="display: none">*</td><td><span title="Codes:{https://spor.ema.europa.eu/v2/SubstanceDefinition 100000090079}">Amlodipine besilate</span></td></tr></table><blockquote><p><b>strength</b></p><p><b>presentation</b>: 13.889 milligram(s)<span style="background: LightGoldenRodYellow"> (Details: Unit of Measurement EMA  code100000110655 = 'milligram(s)')</span>/1 unit(s)<span style="background: LightGoldenRodYellow"> (Details: Unit of Measurement EMA  code100000110756 = 'unit(s)')</span></p><blockquote><p><b>referenceStrength</b></p><h3>Substances</h3><table class="grid"><tr><td style="display: none">-</td><td><b>Concept</b></td></tr><tr><td style="display: none">*</td><td><span title="Codes:{https://spor.ema.europa.eu/v2/SubstanceDefinition 100000085259}">Amlodipine</span></td></tr></table><p><b>strength</b>: 10 milligram(s)<span style="background: LightGoldenRodYellow"> (Details: Unit of Measurement EMA  code100000110655 = 'milligram(s)')</span>/1 unit(s)<span style="background: LightGoldenRodYellow"> (Details: Unit of Measurement EMA  code100000110756 = 'unit(s)')</span></p></blockquote></blockquote></blockquote></div>
        </text>
        <status value="active"/>
        <for>
          <reference value="MedicinalProductDefinition/Norvasc-10mg-Tablet-SE-IS-MedicinalProductDefinition"/>
        </for>
        <for>
          <reference value="ManufacturedItemDefinition/Norvasc-10mg-Tablet-SE-IS-ManufacturedItemDefinition"/>
        </for>
        <for>
          <reference value="AdministrableProductDefinition/Norvasc-10mg-Tablet-SE-IS-AdministrableProductDefinition"/>
        </for>
        <role>
          <coding>
            <system value="https://spor.ema.europa.eu/v1/lists/100000072050"/>
            <code value="100000072072"/>
            <display value="Active"/>
          </coding>
        </role>
        <substance>
          <code>
            <concept>
              <coding>
                <system value="https://spor.ema.europa.eu/v2/SubstanceDefinition"/>
                <code value="100000090079"/>
                <display value="Amlodipine besilate"/>
              </coding>
            </concept>
          </code>
          <strength>
            <presentationRatio>
              <numerator>
                <value value="13.889"/>
                <unit value="milligram(s)"/>
                <system value="https://spor.ema.europa.eu/v1/lists/100000110633"/>
                <code value="100000110655"/>
              </numerator>
              <denominator>
                <value value="1"/>
                <unit value="unit(s)"/>
                <system value="https://spor.ema.europa.eu/v1/lists/100000110633"/>
                <code value="100000110756"/>
              </denominator>
            </presentationRatio>
            <referenceStrength>
              <substance>
                <concept>
                  <coding>
                    <system value="https://spor.ema.europa.eu/v2/SubstanceDefinition"/>
                    <code value="100000085259"/>
                    <display value="Amlodipine"/>
                  </coding>
                </concept>
              </substance>
              <strengthRatio>
                <numerator>
                  <value value="10"/>
                  <unit value="milligram(s)"/>
                  <system value="https://spor.ema.europa.eu/v1/lists/100000110633"/>
                  <code value="100000110655"/>
                </numerator>
                <denominator>
                  <value value="1"/>
                  <unit value="unit(s)"/>
                  <system value="https://spor.ema.europa.eu/v1/lists/100000110633"/>
                  <code value="100000110756"/>
                </denominator>
              </strengthRatio>
            </referenceStrength>
          </strength>
        </substance>
      </Ingredient>
    </resource>
  </entry>
</Bundle>