{
  "resourceType" : "Bundle",
  "id" : "014-CanestenKombi-FI-FullProduct",
  "type" : "collection",
  "entry" : [{
    "fullUrl" : "https://hl7-eu.github.io/unicom-ig/branches/mpd-r4b/MedicinalProductDefinition-CanestenKombi-FI-MPD",
    "resource" : {
      "resourceType" : "MedicinalProductDefinition",
      "id" : "CanestenKombi-FI-MPD",
      "meta" : {
        "profile" : ["http://unicom-project.eu/fhir/StructureDefinition/PPLMedicinalProductDefinition"]
      },
      "text" : {
        "status" : "generated",
        "div" : "<div xmlns=\"http://www.w3.org/1999/xhtml\"><a name=\"MedicinalProductDefinition_CanestenKombi-FI-MPD\"> </a><p class=\"res-header-id\"><b>Generated Narrative: MedicinalProductDefinition CanestenKombi-FI-MPD</b></p><a name=\"CanestenKombi-FI-MPD\"> </a><a name=\"hcCanestenKombi-FI-MPD\"> </a><a name=\"CanestenKombi-FI-MPD-en-US\"> </a><p><b>identifier</b>: <code>http://ema.europa.eu/fhir/mpId</code>/FI-100004966-18300, <code>http://ema.europa.eu/fhir/pmsId</code>/FI00000003</p><p><b>domain</b>: <span title=\"Codes:{https://spor.ema.europa.eu/v1/lists/100000000004 100000000012}\">Human use</span></p><p><b>status</b>: <span title=\"Codes:{https://spor.ema.europa.eu/v1/lists/200000005003 200000005004}\">Current</span></p><p><b>combinedPharmaceuticalDoseForm</b>: <span title=\"Codes:{https://spor.ema.europa.eu/v1/lists/200000000008 100000173972}\">Cream + pessary</span></p><p><b>legalStatusOfSupply</b>: <span title=\"Codes:{https://spor.ema.europa.eu/v1/lists/100000072051 100000072084}\">Medicinal Product subject to medical prescription</span></p><p><b>classification</b>: <span title=\"Codes:{https://spor.ema.europa.eu/v1/lists/100000093533 100000095693}\">clotrimazole</span>, <span title=\"Codes:{http://www.whocc.no/atc G01AF02}\">clotrimazole</span></p><blockquote><p><b>name</b></p><p><b>productName</b>: Canesten® Kombi 500 mg emätinpuikko + 10 mg/g emulsiovoide</p><h3>Parts</h3><table class=\"grid\"><tr><td style=\"display: none\">-</td><td><b>Part</b></td><td><b>Type</b></td></tr><tr><td style=\"display: none\">*</td><td>Canesten Kombi</td><td><span title=\"Codes:{https://spor.ema.europa.eu/v1/lists/220000000000 220000000002}\">Invented name part</span></td></tr></table><h3>Usages</h3><table class=\"grid\"><tr><td style=\"display: none\">-</td><td><b>Country</b></td><td><b>Language</b></td></tr><tr><td style=\"display: none\">*</td><td><span title=\"Codes:{https://spor.ema.europa.eu/v1/lists/100000000002 100000000394}\">Republic of Finland</span></td><td><span title=\"Codes:{urn:ietf:bcp:47 fi}\">Finnish</span></td></tr></table></blockquote></div>"
      },
      "identifier" : [{
        "system" : "http://ema.europa.eu/fhir/mpId",
        "value" : "FI-100004966-18300"
      },
      {
        "system" : "http://ema.europa.eu/fhir/pmsId",
        "value" : "FI00000003"
      }],
      "domain" : {
        "coding" : [{
          "system" : "https://spor.ema.europa.eu/v1/lists/100000000004",
          "code" : "100000000012",
          "display" : "Human use"
        }]
      },
      "status" : {
        "coding" : [{
          "system" : "https://spor.ema.europa.eu/v1/lists/200000005003",
          "code" : "200000005004",
          "display" : "Current"
        }]
      },
      "combinedPharmaceuticalDoseForm" : {
        "coding" : [{
          "system" : "https://spor.ema.europa.eu/v1/lists/200000000008",
          "code" : "100000173972",
          "display" : "Cream + pessary"
        }]
      },
      "legalStatusOfSupply" : {
        "coding" : [{
          "system" : "https://spor.ema.europa.eu/v1/lists/100000072051",
          "code" : "100000072084",
          "display" : "Medicinal Product subject to medical prescription"
        }]
      },
      "classification" : [{
        "coding" : [{
          "system" : "https://spor.ema.europa.eu/v1/lists/100000093533",
          "code" : "100000095693",
          "display" : "clotrimazole"
        }]
      },
      {
        "coding" : [{
          "system" : "http://www.whocc.no/atc",
          "code" : "G01AF02",
          "display" : "clotrimazole"
        }]
      }],
      "name" : [{
        "productName" : "Canesten® Kombi 500 mg emätinpuikko + 10 mg/g emulsiovoide",
        "part" : [{
          "part" : "Canesten Kombi",
          "type" : {
            "coding" : [{
              "system" : "https://spor.ema.europa.eu/v1/lists/220000000000",
              "code" : "220000000002",
              "display" : "Invented name part"
            }]
          }
        }],
        "usage" : [{
          "country" : {
            "coding" : [{
              "system" : "https://spor.ema.europa.eu/v1/lists/100000000002",
              "code" : "100000000394",
              "display" : "Republic of Finland"
            }]
          },
          "language" : {
            "coding" : [{
              "system" : "urn:ietf:bcp:47",
              "code" : "fi",
              "display" : "Finnish"
            }]
          }
        }]
      }]
    }
  },
  {
    "fullUrl" : "https://hl7-eu.github.io/unicom-ig/branches/mpd-r4b/RegulatedAuthorization-CanestenKombi-FI-RA",
    "resource" : {
      "resourceType" : "RegulatedAuthorization",
      "id" : "CanestenKombi-FI-RA",
      "meta" : {
        "profile" : ["http://unicom-project.eu/fhir/StructureDefinition/PPLRegulatedAuthorization"]
      },
      "text" : {
        "status" : "generated",
        "div" : "<div xmlns=\"http://www.w3.org/1999/xhtml\"><a name=\"RegulatedAuthorization_CanestenKombi-FI-RA\"> </a><p class=\"res-header-id\"><b>Generated Narrative: RegulatedAuthorization CanestenKombi-FI-RA</b></p><a name=\"CanestenKombi-FI-RA\"> </a><a name=\"hcCanestenKombi-FI-RA\"> </a><a name=\"CanestenKombi-FI-RA-en-US\"> </a><p><b>identifier</b>: 18300</p><p><b>subject</b>: <a href=\"Bundle-014-CanestenKombi-FI-FullProduct.html#MedicinalProductDefinition_CanestenKombi-FI-MPD\">Bundle: type = collection</a></p><p><b>type</b>: <span title=\"Codes:{https://spor.ema.europa.eu/v1/lists/220000000060 220000000061}\">Marketing Authorisation</span></p><p><b>region</b>: <span title=\"Codes:{https://spor.ema.europa.eu/v1/lists/100000000002 100000000394}\">Republic of Finland</span></p><p><b>status</b>: <span title=\"Codes:{https://spor.ema.europa.eu/v1/lists/100000072049 200000017708}\">Valid - Renewed/Varied</span></p><p><b>statusDate</b>: 2009-11-11</p><p><b>holder</b>: <a href=\"Bundle-014-CanestenKombi-FI-FullProduct.html#Organization_LOC-100004966-BayerOy\">Bundle: type = collection</a></p></div>"
      },
      "identifier" : [{
        "value" : "18300"
      }],
      "subject" : [{
        "reference" : "MedicinalProductDefinition/CanestenKombi-FI-MPD"
      }],
      "type" : {
        "coding" : [{
          "system" : "https://spor.ema.europa.eu/v1/lists/220000000060",
          "code" : "220000000061",
          "display" : "Marketing Authorisation"
        }]
      },
      "region" : [{
        "coding" : [{
          "system" : "https://spor.ema.europa.eu/v1/lists/100000000002",
          "code" : "100000000394",
          "display" : "Republic of Finland"
        }]
      }],
      "status" : {
        "coding" : [{
          "system" : "https://spor.ema.europa.eu/v1/lists/100000072049",
          "code" : "200000017708",
          "display" : "Valid - Renewed/Varied"
        }]
      },
      "statusDate" : "2009-11-11",
      "holder" : {
        "reference" : "Organization/LOC-100004966-BayerOy"
      }
    }
  },
  {
    "fullUrl" : "https://hl7-eu.github.io/unicom-ig/branches/mpd-r4b/Organization-LOC-100004966-BayerOy",
    "resource" : {
      "resourceType" : "Organization",
      "id" : "LOC-100004966-BayerOy",
      "meta" : {
        "profile" : ["http://unicom-project.eu/fhir/StructureDefinition/PPLOrganization"]
      },
      "text" : {
        "status" : "generated",
        "div" : "<div xmlns=\"http://www.w3.org/1999/xhtml\"><a name=\"Organization_LOC-100004966-BayerOy\"> </a><p class=\"res-header-id\"><b>Generated Narrative: Organization LOC-100004966-BayerOy</b></p><a name=\"LOC-100004966-BayerOy\"> </a><a name=\"hcLOC-100004966-BayerOy\"> </a><a name=\"LOC-100004966-BayerOy-en-US\"> </a><p><b>identifier</b>: <code>https://spor.ema.europa.eu/v1/locations</code>/LOC-100004966, <code>https://spor.ema.europa.eu/v1/organisations</code>/ORG-100000155</p><p><b>name</b>: Bayer Oy</p></div>"
      },
      "identifier" : [{
        "system" : "https://spor.ema.europa.eu/v1/locations",
        "value" : "LOC-100004966"
      },
      {
        "system" : "https://spor.ema.europa.eu/v1/organisations",
        "value" : "ORG-100000155"
      }],
      "name" : "Bayer Oy"
    }
  },
  {
    "fullUrl" : "https://hl7-eu.github.io/unicom-ig/branches/mpd-r4b/AdministrableProductDefinition-CanestenKombi-Cream-FI-APD",
    "resource" : {
      "resourceType" : "AdministrableProductDefinition",
      "id" : "CanestenKombi-Cream-FI-APD",
      "meta" : {
        "profile" : ["http://unicom-project.eu/fhir/StructureDefinition/PPLAdministrableProductDefinition"]
      },
      "text" : {
        "status" : "generated",
        "div" : "<div xmlns=\"http://www.w3.org/1999/xhtml\"><a name=\"AdministrableProductDefinition_CanestenKombi-Cream-FI-APD\"> </a><p class=\"res-header-id\"><b>Generated Narrative: AdministrableProductDefinition CanestenKombi-Cream-FI-APD</b></p><a name=\"CanestenKombi-Cream-FI-APD\"> </a><a name=\"hcCanestenKombi-Cream-FI-APD\"> </a><a name=\"CanestenKombi-Cream-FI-APD-en-US\"> </a><p><b>status</b>: Active</p><p><b>formOf</b>: <a href=\"Bundle-014-CanestenKombi-FI-FullProduct.html#MedicinalProductDefinition_CanestenKombi-FI-MPD\">Bundle: type = collection</a></p><p><b>administrableDoseForm</b>: <span title=\"Codes:{https://spor.ema.europa.eu/v1/lists/200000000004 100000073712}\">Cream</span></p><p><b>unitOfPresentation</b>: <span title=\"Codes:{https://spor.ema.europa.eu/v1/lists/200000000014 200000002156}\">Tube</span></p><p><b>producedFrom</b>: <a href=\"Bundle-014-CanestenKombi-FI-FullProduct.html#ManufacturedItemDefinition_CanestenKombi-Cream-FI-MID\">Bundle: type = collection</a></p><h3>RouteOfAdministrations</h3><table class=\"grid\"><tr><td style=\"display: none\">-</td><td><b>Code</b></td></tr><tr><td style=\"display: none\">*</td><td><span title=\"Codes:{https://spor.ema.europa.eu/v1/lists/100000073345 100000073566}\">Cutaneous use</span></td></tr></table></div>"
      },
      "status" : "active",
      "formOf" : [{
        "reference" : "MedicinalProductDefinition/CanestenKombi-FI-MPD"
      }],
      "administrableDoseForm" : {
        "coding" : [{
          "system" : "https://spor.ema.europa.eu/v1/lists/200000000004",
          "code" : "100000073712",
          "display" : "Cream"
        }]
      },
      "unitOfPresentation" : {
        "coding" : [{
          "system" : "https://spor.ema.europa.eu/v1/lists/200000000014",
          "code" : "200000002156",
          "display" : "Tube"
        }]
      },
      "producedFrom" : [{
        "reference" : "ManufacturedItemDefinition/CanestenKombi-Cream-FI-MID"
      }],
      "routeOfAdministration" : [{
        "code" : {
          "coding" : [{
            "system" : "https://spor.ema.europa.eu/v1/lists/100000073345",
            "code" : "100000073566",
            "display" : "Cutaneous use"
          }]
        }
      }]
    }
  },
  {
    "fullUrl" : "https://hl7-eu.github.io/unicom-ig/branches/mpd-r4b/AdministrableProductDefinition-CanestenKombi-Pessary-FI-APD",
    "resource" : {
      "resourceType" : "AdministrableProductDefinition",
      "id" : "CanestenKombi-Pessary-FI-APD",
      "meta" : {
        "profile" : ["http://unicom-project.eu/fhir/StructureDefinition/PPLAdministrableProductDefinition"]
      },
      "text" : {
        "status" : "generated",
        "div" : "<div xmlns=\"http://www.w3.org/1999/xhtml\"><a name=\"AdministrableProductDefinition_CanestenKombi-Pessary-FI-APD\"> </a><p class=\"res-header-id\"><b>Generated Narrative: AdministrableProductDefinition CanestenKombi-Pessary-FI-APD</b></p><a name=\"CanestenKombi-Pessary-FI-APD\"> </a><a name=\"hcCanestenKombi-Pessary-FI-APD\"> </a><a name=\"CanestenKombi-Pessary-FI-APD-en-US\"> </a><p><b>status</b>: Active</p><p><b>formOf</b>: <a href=\"Bundle-014-CanestenKombi-FI-FullProduct.html#MedicinalProductDefinition_CanestenKombi-FI-MPD\">Bundle: type = collection</a></p><p><b>administrableDoseForm</b>: <span title=\"Codes:{https://spor.ema.europa.eu/v1/lists/200000000004 100000073815}\">Pessary</span></p><p><b>unitOfPresentation</b>: <span title=\"Codes:{https://spor.ema.europa.eu/v1/lists/200000000014 200000002137}\">Pessary</span></p><p><b>producedFrom</b>: <a href=\"Bundle-014-CanestenKombi-FI-FullProduct.html#ManufacturedItemDefinition_CanestenKombi-Pessary-FI-MID\">Bundle: type = collection</a></p><h3>RouteOfAdministrations</h3><table class=\"grid\"><tr><td style=\"display: none\">-</td><td><b>Code</b></td></tr><tr><td style=\"display: none\">*</td><td><span title=\"Codes:{https://spor.ema.europa.eu/v1/lists/100000073345 100000073639}\">Vaginal use</span></td></tr></table></div>"
      },
      "status" : "active",
      "formOf" : [{
        "reference" : "MedicinalProductDefinition/CanestenKombi-FI-MPD"
      }],
      "administrableDoseForm" : {
        "coding" : [{
          "system" : "https://spor.ema.europa.eu/v1/lists/200000000004",
          "code" : "100000073815",
          "display" : "Pessary"
        }]
      },
      "unitOfPresentation" : {
        "coding" : [{
          "system" : "https://spor.ema.europa.eu/v1/lists/200000000014",
          "code" : "200000002137",
          "display" : "Pessary"
        }]
      },
      "producedFrom" : [{
        "reference" : "ManufacturedItemDefinition/CanestenKombi-Pessary-FI-MID"
      }],
      "routeOfAdministration" : [{
        "code" : {
          "coding" : [{
            "system" : "https://spor.ema.europa.eu/v1/lists/100000073345",
            "code" : "100000073639",
            "display" : "Vaginal use"
          }]
        }
      }]
    }
  },
  {
    "fullUrl" : "https://hl7-eu.github.io/unicom-ig/branches/mpd-r4b/ManufacturedItemDefinition-CanestenKombi-Cream-FI-MID",
    "resource" : {
      "resourceType" : "ManufacturedItemDefinition",
      "id" : "CanestenKombi-Cream-FI-MID",
      "meta" : {
        "profile" : ["http://unicom-project.eu/fhir/StructureDefinition/PPLManufacturedItemDefinition"]
      },
      "text" : {
        "status" : "generated",
        "div" : "<div xmlns=\"http://www.w3.org/1999/xhtml\"><a name=\"ManufacturedItemDefinition_CanestenKombi-Cream-FI-MID\"> </a><p class=\"res-header-id\"><b>Generated Narrative: ManufacturedItemDefinition CanestenKombi-Cream-FI-MID</b></p><a name=\"CanestenKombi-Cream-FI-MID\"> </a><a name=\"hcCanestenKombi-Cream-FI-MID\"> </a><a name=\"CanestenKombi-Cream-FI-MID-en-US\"> </a><p><b>status</b>: Active</p><p><b>manufacturedDoseForm</b>: <span title=\"Codes:{https://spor.ema.europa.eu/v1/lists/200000000004 100000073712}\">Cream</span></p><p><b>unitOfPresentation</b>: <span title=\"Codes:{https://spor.ema.europa.eu/v1/lists/200000000014 200000002156}\">Tube</span></p></div>"
      },
      "status" : "active",
      "manufacturedDoseForm" : {
        "coding" : [{
          "system" : "https://spor.ema.europa.eu/v1/lists/200000000004",
          "code" : "100000073712",
          "display" : "Cream"
        }]
      },
      "unitOfPresentation" : {
        "coding" : [{
          "system" : "https://spor.ema.europa.eu/v1/lists/200000000014",
          "code" : "200000002156",
          "display" : "Tube"
        }]
      }
    }
  },
  {
    "fullUrl" : "https://hl7-eu.github.io/unicom-ig/branches/mpd-r4b/ManufacturedItemDefinition-CanestenKombi-Pessary-FI-MID",
    "resource" : {
      "resourceType" : "ManufacturedItemDefinition",
      "id" : "CanestenKombi-Pessary-FI-MID",
      "meta" : {
        "profile" : ["http://unicom-project.eu/fhir/StructureDefinition/PPLManufacturedItemDefinition"]
      },
      "text" : {
        "status" : "generated",
        "div" : "<div xmlns=\"http://www.w3.org/1999/xhtml\"><a name=\"ManufacturedItemDefinition_CanestenKombi-Pessary-FI-MID\"> </a><p class=\"res-header-id\"><b>Generated Narrative: ManufacturedItemDefinition CanestenKombi-Pessary-FI-MID</b></p><a name=\"CanestenKombi-Pessary-FI-MID\"> </a><a name=\"hcCanestenKombi-Pessary-FI-MID\"> </a><a name=\"CanestenKombi-Pessary-FI-MID-en-US\"> </a><p><b>status</b>: Active</p><p><b>manufacturedDoseForm</b>: <span title=\"Codes:{https://spor.ema.europa.eu/v1/lists/200000000004 100000073815}\">Pessary</span></p><p><b>unitOfPresentation</b>: <span title=\"Codes:{https://spor.ema.europa.eu/v1/lists/200000000014 200000002137}\">Pessary</span></p></div>"
      },
      "status" : "active",
      "manufacturedDoseForm" : {
        "coding" : [{
          "system" : "https://spor.ema.europa.eu/v1/lists/200000000004",
          "code" : "100000073815",
          "display" : "Pessary"
        }]
      },
      "unitOfPresentation" : {
        "coding" : [{
          "system" : "https://spor.ema.europa.eu/v1/lists/200000000014",
          "code" : "200000002137",
          "display" : "Pessary"
        }]
      }
    }
  },
  {
    "fullUrl" : "https://hl7-eu.github.io/unicom-ig/branches/mpd-r4b/Ingredient-CanestenKombi-Cream-FI-I",
    "resource" : {
      "resourceType" : "Ingredient",
      "id" : "CanestenKombi-Cream-FI-I",
      "meta" : {
        "profile" : ["http://unicom-project.eu/fhir/StructureDefinition/PPLIngredient"]
      },
      "text" : {
        "status" : "generated",
        "div" : "<div xmlns=\"http://www.w3.org/1999/xhtml\"><a name=\"Ingredient_CanestenKombi-Cream-FI-I\"> </a><p class=\"res-header-id\"><b>Generated Narrative: Ingredient CanestenKombi-Cream-FI-I</b></p><a name=\"CanestenKombi-Cream-FI-I\"> </a><a name=\"hcCanestenKombi-Cream-FI-I\"> </a><a name=\"CanestenKombi-Cream-FI-I-en-US\"> </a><p><b>status</b>: Active</p><p><b>for</b>: </p><ul><li><a href=\"Bundle-014-CanestenKombi-FI-FullProduct.html#MedicinalProductDefinition_CanestenKombi-FI-MPD\">Bundle: type = collection</a></li><li><a href=\"Bundle-014-CanestenKombi-FI-FullProduct.html#ManufacturedItemDefinition_CanestenKombi-Cream-FI-MID\">Bundle: type = collection</a></li><li><a href=\"Bundle-014-CanestenKombi-FI-FullProduct.html#AdministrableProductDefinition_CanestenKombi-Cream-FI-APD\">Bundle: type = collection</a></li></ul><p><b>role</b>: <span title=\"Codes:{https://spor.ema.europa.eu/v1/lists/100000072050 100000072072}\">Active</span></p><blockquote><p><b>substance</b></p><h3>Codes</h3><table class=\"grid\"><tr><td style=\"display: none\">-</td><td><b>Concept</b></td></tr><tr><td style=\"display: none\">*</td><td><span title=\"Codes:{https://spor.ema.europa.eu/v2/SubstanceDefinition 100000092074}\">CLOTRIMAZOLE</span></td></tr></table><h3>Strengths</h3><table class=\"grid\"><tr><td style=\"display: none\">-</td><td><b>Concentration[x]</b></td></tr><tr><td style=\"display: none\">*</td><td>10 milligram(s)<span style=\"background: LightGoldenRodYellow\"> (Details: Unit of Measurement EMA  code100000110655 = 'milligram(s)')</span>/1 gram(s)<span style=\"background: LightGoldenRodYellow\"> (Details: Unit of Measurement EMA  code100000110654 = 'gram(s)')</span></td></tr></table></blockquote></div>"
      },
      "status" : "active",
      "for" : [{
        "reference" : "MedicinalProductDefinition/CanestenKombi-FI-MPD"
      },
      {
        "reference" : "ManufacturedItemDefinition/CanestenKombi-Cream-FI-MID"
      },
      {
        "reference" : "AdministrableProductDefinition/CanestenKombi-Cream-FI-APD"
      }],
      "role" : {
        "coding" : [{
          "system" : "https://spor.ema.europa.eu/v1/lists/100000072050",
          "code" : "100000072072",
          "display" : "Active"
        }]
      },
      "substance" : {
        "code" : {
          "concept" : {
            "coding" : [{
              "system" : "https://spor.ema.europa.eu/v2/SubstanceDefinition",
              "code" : "100000092074",
              "display" : "CLOTRIMAZOLE"
            }]
          }
        },
        "strength" : [{
          "concentrationRatio" : {
            "numerator" : {
              "value" : 10,
              "unit" : "milligram(s)",
              "system" : "https://spor.ema.europa.eu/v1/lists/100000110633",
              "code" : "100000110655"
            },
            "denominator" : {
              "value" : 1,
              "unit" : "gram(s)",
              "system" : "https://spor.ema.europa.eu/v1/lists/100000110633",
              "code" : "100000110654"
            }
          }
        }]
      }
    }
  },
  {
    "fullUrl" : "https://hl7-eu.github.io/unicom-ig/branches/mpd-r4b/Ingredient-CanestenKombi-Pessary-FI-I",
    "resource" : {
      "resourceType" : "Ingredient",
      "id" : "CanestenKombi-Pessary-FI-I",
      "meta" : {
        "profile" : ["http://unicom-project.eu/fhir/StructureDefinition/PPLIngredient"]
      },
      "text" : {
        "status" : "generated",
        "div" : "<div xmlns=\"http://www.w3.org/1999/xhtml\"><a name=\"Ingredient_CanestenKombi-Pessary-FI-I\"> </a><p class=\"res-header-id\"><b>Generated Narrative: Ingredient CanestenKombi-Pessary-FI-I</b></p><a name=\"CanestenKombi-Pessary-FI-I\"> </a><a name=\"hcCanestenKombi-Pessary-FI-I\"> </a><a name=\"CanestenKombi-Pessary-FI-I-en-US\"> </a><p><b>status</b>: Active</p><p><b>for</b>: </p><ul><li><a href=\"Bundle-014-CanestenKombi-FI-FullProduct.html#MedicinalProductDefinition_CanestenKombi-FI-MPD\">Bundle: type = collection</a></li><li><a href=\"Bundle-014-CanestenKombi-FI-FullProduct.html#ManufacturedItemDefinition_CanestenKombi-Pessary-FI-MID\">Bundle: type = collection</a></li><li><a href=\"Bundle-014-CanestenKombi-FI-FullProduct.html#AdministrableProductDefinition_CanestenKombi-Pessary-FI-APD\">Bundle: type = collection</a></li></ul><p><b>role</b>: <span title=\"Codes:{https://spor.ema.europa.eu/v1/lists/100000072050 100000072072}\">Active</span></p><blockquote><p><b>substance</b></p><h3>Codes</h3><table class=\"grid\"><tr><td style=\"display: none\">-</td><td><b>Concept</b></td></tr><tr><td style=\"display: none\">*</td><td><span title=\"Codes:{https://spor.ema.europa.eu/v2/SubstanceDefinition 100000092074}\">CLOTRIMAZOLE</span></td></tr></table><h3>Strengths</h3><table class=\"grid\"><tr><td style=\"display: none\">-</td><td><b>Presentation[x]</b></td></tr><tr><td style=\"display: none\">*</td><td>500 milligram(s)<span style=\"background: LightGoldenRodYellow\"> (Details: Unit of Measurement EMA  code100000110655 = 'milligram(s)')</span>/1 Pessary<span style=\"background: LightGoldenRodYellow\"> (Details: Unit of Presentation EMA  code200000002137 = 'Pessary')</span></td></tr></table></blockquote></div>"
      },
      "status" : "active",
      "for" : [{
        "reference" : "MedicinalProductDefinition/CanestenKombi-FI-MPD"
      },
      {
        "reference" : "ManufacturedItemDefinition/CanestenKombi-Pessary-FI-MID"
      },
      {
        "reference" : "AdministrableProductDefinition/CanestenKombi-Pessary-FI-APD"
      }],
      "role" : {
        "coding" : [{
          "system" : "https://spor.ema.europa.eu/v1/lists/100000072050",
          "code" : "100000072072",
          "display" : "Active"
        }]
      },
      "substance" : {
        "code" : {
          "concept" : {
            "coding" : [{
              "system" : "https://spor.ema.europa.eu/v2/SubstanceDefinition",
              "code" : "100000092074",
              "display" : "CLOTRIMAZOLE"
            }]
          }
        },
        "strength" : [{
          "presentationRatio" : {
            "numerator" : {
              "value" : 500,
              "unit" : "milligram(s)",
              "system" : "https://spor.ema.europa.eu/v1/lists/100000110633",
              "code" : "100000110655"
            },
            "denominator" : {
              "value" : 1,
              "unit" : "Pessary",
              "system" : "https://spor.ema.europa.eu/v1/lists/200000000014",
              "code" : "200000002137"
            }
          }
        }]
      }
    }
  },
  {
    "fullUrl" : "https://hl7-eu.github.io/unicom-ig/branches/mpd-r4b/PackagedProductDefinition-CanestenKombi-FI-PPD-541276",
    "resource" : {
      "resourceType" : "PackagedProductDefinition",
      "id" : "CanestenKombi-FI-PPD-541276",
      "meta" : {
        "profile" : ["http://unicom-project.eu/fhir/StructureDefinition/PPLPackagedProductDefinition"]
      },
      "text" : {
        "status" : "generated",
        "div" : "<div xmlns=\"http://www.w3.org/1999/xhtml\"><a name=\"PackagedProductDefinition_CanestenKombi-FI-PPD-541276\"> </a><p class=\"res-header-id\"><b>Generated Narrative: PackagedProductDefinition CanestenKombi-FI-PPD-541276</b></p><a name=\"CanestenKombi-FI-PPD-541276\"> </a><a name=\"hcCanestenKombi-FI-PPD-541276\"> </a><a name=\"CanestenKombi-FI-PPD-541276-en-US\"> </a><p><b>identifier</b>: <code>http://ema.europa.eu/example/pcid</code>/FI-100004966-18300-541276</p><p><b>packageFor</b>: <a href=\"Bundle-014-CanestenKombi-FI-FullProduct.html#MedicinalProductDefinition_CanestenKombi-FI-MPD\">Bundle: type = collection</a></p><p><b>containedItemQuantity</b>: 1 Pessary<span style=\"background: LightGoldenRodYellow\"> (Details: Unit of Presentation EMA  code200000002137 = 'Pessary')</span>, 1 Tube<span style=\"background: LightGoldenRodYellow\"> (Details: Unit of Presentation EMA  code200000002156 = 'Tube')</span></p><p><b>description</b>: </p><div><p>Yksi emätinpuikko läpipainopakkauksessa. Läpipainopakkauksen alaosa on pehmeää\nalumiini/polyamidi/polyvinyylikloridi -foliota ja kansi kovaa alumiinifoliota. Kansiosa on\nkuumasaumattu alaosaan. Pakkauksessa on polyetyleenistä valmistettu asetin. 20 g emulsiovoidetta\nalumiiniputkessa</p>\n</div><h3>MarketingStatuses</h3><table class=\"grid\"><tr><td style=\"display: none\">-</td><td><b>Country</b></td><td><b>Status</b></td></tr><tr><td style=\"display: none\">*</td><td><span title=\"Codes:{https://spor.ema.europa.eu/v1/lists/100000000002 100000000394}\">Republic of Finland</span></td><td><span title=\"Codes:{https://spor.ema.europa.eu/v1/lists/100000072052 100000072083}\">Marketed</span></td></tr></table><blockquote><p><b>packaging</b></p><p><b>type</b>: <span title=\"Codes:{https://spor.ema.europa.eu/v1/lists/100000073346 100000073498}\">Box</span></p><p><b>quantity</b>: 1</p><p><b>material</b>: <span title=\"Codes:{https://spor.ema.europa.eu/v1/lists/200000003199 200000003529}\">Cardboard</span></p><blockquote><p><b>containedItem</b></p><h3>Items</h3><table class=\"grid\"><tr><td style=\"display: none\">-</td><td><b>Concept</b></td></tr><tr><td style=\"display: none\">*</td><td><span title=\"Codes:{https://spor.ema.europa.eu/v1/lists/100000073346 100000073491}\">Applicator</span></td></tr></table></blockquote><blockquote><p><b>packaging</b></p></blockquote><blockquote><p><b>packaging</b></p></blockquote></blockquote></div>"
      },
      "identifier" : [{
        "system" : "http://ema.europa.eu/example/pcid",
        "value" : "FI-100004966-18300-541276"
      }],
      "packageFor" : [{
        "reference" : "MedicinalProductDefinition/CanestenKombi-FI-MPD"
      }],
      "containedItemQuantity" : [{
        "value" : 1,
        "unit" : "Pessary",
        "system" : "https://spor.ema.europa.eu/v1/lists/200000000014",
        "code" : "200000002137"
      },
      {
        "value" : 1,
        "unit" : "Tube",
        "system" : "https://spor.ema.europa.eu/v1/lists/200000000014",
        "code" : "200000002156"
      }],
      "description" : "Yksi emätinpuikko läpipainopakkauksessa. Läpipainopakkauksen alaosa on pehmeää \nalumiini/polyamidi/polyvinyylikloridi -foliota ja kansi kovaa alumiinifoliota. Kansiosa on \nkuumasaumattu alaosaan. Pakkauksessa on polyetyleenistä valmistettu asetin. 20 g emulsiovoidetta \nalumiiniputkessa",
      "marketingStatus" : [{
        "country" : {
          "coding" : [{
            "system" : "https://spor.ema.europa.eu/v1/lists/100000000002",
            "code" : "100000000394",
            "display" : "Republic of Finland"
          }]
        },
        "status" : {
          "coding" : [{
            "system" : "https://spor.ema.europa.eu/v1/lists/100000072052",
            "code" : "100000072083",
            "display" : "Marketed"
          }]
        }
      }],
      "packaging" : {
        "type" : {
          "coding" : [{
            "system" : "https://spor.ema.europa.eu/v1/lists/100000073346",
            "code" : "100000073498",
            "display" : "Box"
          }]
        },
        "quantity" : 1,
        "material" : [{
          "coding" : [{
            "system" : "https://spor.ema.europa.eu/v1/lists/200000003199",
            "code" : "200000003529",
            "display" : "Cardboard"
          }]
        }],
        "containedItem" : [{
          "item" : {
            "concept" : {
              "coding" : [{
                "system" : "https://spor.ema.europa.eu/v1/lists/100000073346",
                "code" : "100000073491",
                "display" : "Applicator"
              }]
            }
          }
        }],
        "packaging" : [{
          "type" : {
            "coding" : [{
              "system" : "https://spor.ema.europa.eu/v1/lists/100000073346",
              "code" : "100000073496",
              "display" : "Blister"
            }]
          },
          "quantity" : 1,
          "containedItem" : [{
            "item" : {
              "reference" : {
                "reference" : "ManufacturedItemDefinition/CanestenKombi-Pessary-FI-MID"
              }
            },
            "amount" : {
              "value" : 1
            }
          }]
        },
        {
          "type" : {
            "coding" : [{
              "system" : "https://spor.ema.europa.eu/v1/lists/100000073346",
              "code" : "100000073561",
              "display" : "Tube"
            }]
          },
          "quantity" : 1,
          "material" : [{
            "coding" : [{
              "system" : "https://spor.ema.europa.eu/v1/lists/200000003199",
              "code" : "200000003200",
              "display" : "Aluminium"
            }]
          }],
          "containedItem" : [{
            "item" : {
              "reference" : {
                "reference" : "ManufacturedItemDefinition/CanestenKombi-Cream-FI-MID"
              }
            },
            "amount" : {
              "value" : 20,
              "unit" : "gram(s)",
              "system" : "https://spor.ema.europa.eu/v1/lists/100000110633",
              "code" : "100000110654"
            }
          }]
        }]
      }
    }
  }]
}