{
  "resourceType" : "Bundle",
  "id" : "015-CopaliaHCT-EE-FullProduct",
  "type" : "collection",
  "entry" : [{
    "fullUrl" : "https://hl7-eu.github.io/unicom-ig/branches/mpd-r4b/MedicinalProductDefinition-CopaliaHCT-EE-MPD",
    "resource" : {
      "resourceType" : "MedicinalProductDefinition",
      "id" : "CopaliaHCT-EE-MPD",
      "meta" : {
        "profile" : ["http://unicom-project.eu/fhir/StructureDefinition/PPLMedicinalProductDefinition"]
      },
      "text" : {
        "status" : "generated",
        "div" : "<div xmlns=\"http://www.w3.org/1999/xhtml\"><a name=\"MedicinalProductDefinition_CopaliaHCT-EE-MPD\"> </a><p class=\"res-header-id\"><b>Generated Narrative: MedicinalProductDefinition CopaliaHCT-EE-MPD</b></p><a name=\"CopaliaHCT-EE-MPD\"> </a><a name=\"hcCopaliaHCT-EE-MPD\"> </a><a name=\"CopaliaHCT-EE-MPD-en-US\"> </a><p><b>identifier</b>: <code>http://ema.europa.eu/fhir/mpId</code>/EE-100010531-3309</p><p><b>domain</b>: <span title=\"Codes:{https://spor.ema.europa.eu/v1/lists/100000000004 100000000012}\">Human use</span></p><p><b>status</b>: <span title=\"Codes:{https://spor.ema.europa.eu/v1/lists/200000005003 200000005005}\">Provisional</span></p><p><b>combinedPharmaceuticalDoseForm</b>: <span title=\"Codes:{https://spor.ema.europa.eu/v1/lists/200000000004 100000073665}\">Film-coated tablet</span></p><p><b>legalStatusOfSupply</b>: <span title=\"Codes:{https://spor.ema.europa.eu/v1/lists/100000072051 100000072084}\">Medicinal Product subject to medical prescription</span></p><p><b>classification</b>: <span title=\"Codes:{http://www.whocc.no/atc C09DX01}\">valsartan, amlodipine and hydrochlorothiazide</span>, <span title=\"Codes:{https://spor.ema.europa.eu/v1/lists/100000093533 100000116213}\">valsartan, amlodipine and hydrochlorothiazide</span></p><blockquote><p><b>name</b></p><p><b>productName</b>: COPALIA HCT 160mg / 12.5mg / 10mg õhukese polümeerikattega tabletid</p><blockquote><p><b>part</b></p><p><b>part</b>: COPALIA HCT</p><p><b>type</b>: <span title=\"Codes:{https://spor.ema.europa.eu/v1/lists/220000000000 220000000002}\">Invented name part</span></p></blockquote><blockquote><p><b>part</b></p><p><b>part</b>: 160mg / 12.5mg / 10mg</p><p><b>type</b>: <span title=\"Codes:{https://spor.ema.europa.eu/v1/lists/220000000000 220000000004}\">Strength part</span></p></blockquote><blockquote><p><b>part</b></p><p><b>part</b>: õhukese polümeerikattega tabletid</p><p><b>type</b>: <span title=\"Codes:{https://spor.ema.europa.eu/v1/lists/220000000000 220000000005}\">Pharmaceutical dose form part</span></p></blockquote><h3>Usages</h3><table class=\"grid\"><tr><td style=\"display: none\">-</td><td><b>Country</b></td><td><b>Language</b></td></tr><tr><td style=\"display: none\">*</td><td><span title=\"Codes:{https://spor.ema.europa.eu/v1/lists/100000000002 100000000388}\">Republic of Estonia</span></td><td><span title=\"Codes:{urn:ietf:bcp:47 et}\">Estonian</span></td></tr></table></blockquote></div>"
      },
      "identifier" : [{
        "system" : "http://ema.europa.eu/fhir/mpId",
        "value" : "EE-100010531-3309"
      }],
      "domain" : {
        "coding" : [{
          "system" : "https://spor.ema.europa.eu/v1/lists/100000000004",
          "code" : "100000000012",
          "display" : "Human use"
        }]
      },
      "status" : {
        "coding" : [{
          "system" : "https://spor.ema.europa.eu/v1/lists/200000005003",
          "code" : "200000005005",
          "display" : "Provisional"
        }]
      },
      "combinedPharmaceuticalDoseForm" : {
        "coding" : [{
          "system" : "https://spor.ema.europa.eu/v1/lists/200000000004",
          "code" : "100000073665",
          "display" : "Film-coated tablet"
        }]
      },
      "legalStatusOfSupply" : {
        "coding" : [{
          "system" : "https://spor.ema.europa.eu/v1/lists/100000072051",
          "code" : "100000072084",
          "display" : "Medicinal Product subject to medical prescription"
        }]
      },
      "classification" : [{
        "coding" : [{
          "system" : "http://www.whocc.no/atc",
          "code" : "C09DX01",
          "display" : "valsartan, amlodipine and hydrochlorothiazide"
        }]
      },
      {
        "coding" : [{
          "system" : "https://spor.ema.europa.eu/v1/lists/100000093533",
          "code" : "100000116213",
          "display" : "valsartan, amlodipine and hydrochlorothiazide"
        }]
      }],
      "name" : [{
        "productName" : "COPALIA HCT 160mg / 12.5mg / 10mg õhukese polümeerikattega tabletid",
        "part" : [{
          "part" : "COPALIA HCT",
          "type" : {
            "coding" : [{
              "system" : "https://spor.ema.europa.eu/v1/lists/220000000000",
              "code" : "220000000002",
              "display" : "Invented name part"
            }]
          }
        },
        {
          "part" : "160mg / 12.5mg / 10mg",
          "type" : {
            "coding" : [{
              "system" : "https://spor.ema.europa.eu/v1/lists/220000000000",
              "code" : "220000000004",
              "display" : "Strength part"
            }]
          }
        },
        {
          "part" : "õhukese polümeerikattega tabletid",
          "type" : {
            "coding" : [{
              "system" : "https://spor.ema.europa.eu/v1/lists/220000000000",
              "code" : "220000000005",
              "display" : "Pharmaceutical dose form part"
            }]
          }
        }],
        "usage" : [{
          "country" : {
            "coding" : [{
              "system" : "https://spor.ema.europa.eu/v1/lists/100000000002",
              "code" : "100000000388",
              "display" : "Republic of Estonia"
            }]
          },
          "language" : {
            "coding" : [{
              "system" : "urn:ietf:bcp:47",
              "code" : "et",
              "display" : "Estonian"
            }]
          }
        }]
      }]
    }
  },
  {
    "fullUrl" : "https://hl7-eu.github.io/unicom-ig/branches/mpd-r4b/RegulatedAuthorization-CopaliaHCT-EE-RA",
    "resource" : {
      "resourceType" : "RegulatedAuthorization",
      "id" : "CopaliaHCT-EE-RA",
      "meta" : {
        "profile" : ["http://unicom-project.eu/fhir/StructureDefinition/PPLRegulatedAuthorization"]
      },
      "text" : {
        "status" : "generated",
        "div" : "<div xmlns=\"http://www.w3.org/1999/xhtml\"><a name=\"RegulatedAuthorization_CopaliaHCT-EE-RA\"> </a><p class=\"res-header-id\"><b>Generated Narrative: RegulatedAuthorization CopaliaHCT-EE-RA</b></p><a name=\"CopaliaHCT-EE-RA\"> </a><a name=\"hcCopaliaHCT-EE-RA\"> </a><a name=\"CopaliaHCT-EE-RA-en-US\"> </a><p><b>identifier</b>: EU/1/09/575</p><p><b>subject</b>: <a href=\"Bundle-015-CopaliaHCT-EE-FullProduct.html#MedicinalProductDefinition_CopaliaHCT-EE-MPD\">Bundle: type = collection</a></p><p><b>type</b>: <span title=\"Codes:{https://spor.ema.europa.eu/v1/lists/220000000060 220000000061}\">Marketing Authorisation</span></p><p><b>region</b>: <span title=\"Codes:{https://spor.ema.europa.eu/v1/lists/100000000002 100000000388}\">Republic of Estonia</span></p><p><b>status</b>: <span title=\"Codes:{https://spor.ema.europa.eu/v1/lists/100000072049 100000072099}\">Valid</span></p><p><b>statusDate</b>: 2009-11-04</p><p><b>holder</b>: <a href=\"Bundle-015-CopaliaHCT-EE-FullProduct.html#Organization_LOC-100010531-NovartisEuropharmLimited\">Bundle: type = collection</a></p></div>"
      },
      "identifier" : [{
        "value" : "EU/1/09/575"
      }],
      "subject" : [{
        "reference" : "MedicinalProductDefinition/CopaliaHCT-EE-MPD"
      }],
      "type" : {
        "coding" : [{
          "system" : "https://spor.ema.europa.eu/v1/lists/220000000060",
          "code" : "220000000061",
          "display" : "Marketing Authorisation"
        }]
      },
      "region" : [{
        "coding" : [{
          "system" : "https://spor.ema.europa.eu/v1/lists/100000000002",
          "code" : "100000000388",
          "display" : "Republic of Estonia"
        }]
      }],
      "status" : {
        "coding" : [{
          "system" : "https://spor.ema.europa.eu/v1/lists/100000072049",
          "code" : "100000072099",
          "display" : "Valid"
        }]
      },
      "statusDate" : "2009-11-04",
      "holder" : {
        "reference" : "Organization/LOC-100010531-NovartisEuropharmLimited"
      }
    }
  },
  {
    "fullUrl" : "https://hl7-eu.github.io/unicom-ig/branches/mpd-r4b/Organization-LOC-100010531-NovartisEuropharmLimited",
    "resource" : {
      "resourceType" : "Organization",
      "id" : "LOC-100010531-NovartisEuropharmLimited",
      "meta" : {
        "profile" : ["http://unicom-project.eu/fhir/StructureDefinition/PPLOrganization"]
      },
      "text" : {
        "status" : "generated",
        "div" : "<div xmlns=\"http://www.w3.org/1999/xhtml\"><a name=\"Organization_LOC-100010531-NovartisEuropharmLimited\"> </a><p class=\"res-header-id\"><b>Generated Narrative: Organization LOC-100010531-NovartisEuropharmLimited</b></p><a name=\"LOC-100010531-NovartisEuropharmLimited\"> </a><a name=\"hcLOC-100010531-NovartisEuropharmLimited\"> </a><a name=\"LOC-100010531-NovartisEuropharmLimited-en-US\"> </a><p><b>identifier</b>: <code>https://spor.ema.europa.eu/v1/locations</code>/LOC-100010531, <code>https://spor.ema.europa.eu/v1/organisations</code>/ORG-100007373</p><p><b>name</b>: Novartis Europharm Limited</p></div>"
      },
      "identifier" : [{
        "system" : "https://spor.ema.europa.eu/v1/locations",
        "value" : "LOC-100010531"
      },
      {
        "system" : "https://spor.ema.europa.eu/v1/organisations",
        "value" : "ORG-100007373"
      }],
      "name" : "Novartis Europharm Limited"
    }
  },
  {
    "fullUrl" : "https://hl7-eu.github.io/unicom-ig/branches/mpd-r4b/AdministrableProductDefinition-CopaliaHCT-EE-APD",
    "resource" : {
      "resourceType" : "AdministrableProductDefinition",
      "id" : "CopaliaHCT-EE-APD",
      "meta" : {
        "profile" : ["http://unicom-project.eu/fhir/StructureDefinition/PPLAdministrableProductDefinition"]
      },
      "text" : {
        "status" : "generated",
        "div" : "<div xmlns=\"http://www.w3.org/1999/xhtml\"><a name=\"AdministrableProductDefinition_CopaliaHCT-EE-APD\"> </a><p class=\"res-header-id\"><b>Generated Narrative: AdministrableProductDefinition CopaliaHCT-EE-APD</b></p><a name=\"CopaliaHCT-EE-APD\"> </a><a name=\"hcCopaliaHCT-EE-APD\"> </a><a name=\"CopaliaHCT-EE-APD-en-US\"> </a><p><b>status</b>: Active</p><p><b>formOf</b>: <a href=\"Bundle-015-CopaliaHCT-EE-FullProduct.html#MedicinalProductDefinition_CopaliaHCT-EE-MPD\">Bundle: type = collection</a></p><p><b>administrableDoseForm</b>: <span title=\"Codes:{https://spor.ema.europa.eu/v1/lists/200000000004 100000073665}\">Film-coated tablet</span></p><p><b>unitOfPresentation</b>: <span title=\"Codes:{https://spor.ema.europa.eu/v1/lists/200000000014 200000002152}\">Tablet</span></p><h3>RouteOfAdministrations</h3><table class=\"grid\"><tr><td style=\"display: none\">-</td><td><b>Code</b></td></tr><tr><td style=\"display: none\">*</td><td><span title=\"Codes:{https://spor.ema.europa.eu/v1/lists/100000073345 100000073619}\">Oral use</span></td></tr></table></div>"
      },
      "status" : "active",
      "formOf" : [{
        "reference" : "MedicinalProductDefinition/CopaliaHCT-EE-MPD"
      }],
      "administrableDoseForm" : {
        "coding" : [{
          "system" : "https://spor.ema.europa.eu/v1/lists/200000000004",
          "code" : "100000073665",
          "display" : "Film-coated tablet"
        }]
      },
      "unitOfPresentation" : {
        "coding" : [{
          "system" : "https://spor.ema.europa.eu/v1/lists/200000000014",
          "code" : "200000002152",
          "display" : "Tablet"
        }]
      },
      "routeOfAdministration" : [{
        "code" : {
          "coding" : [{
            "system" : "https://spor.ema.europa.eu/v1/lists/100000073345",
            "code" : "100000073619",
            "display" : "Oral use"
          }]
        }
      }]
    }
  },
  {
    "fullUrl" : "https://hl7-eu.github.io/unicom-ig/branches/mpd-r4b/ManufacturedItemDefinition-CopaliaHCT-EE-MID",
    "resource" : {
      "resourceType" : "ManufacturedItemDefinition",
      "id" : "CopaliaHCT-EE-MID",
      "meta" : {
        "profile" : ["http://unicom-project.eu/fhir/StructureDefinition/PPLManufacturedItemDefinition"]
      },
      "text" : {
        "status" : "generated",
        "div" : "<div xmlns=\"http://www.w3.org/1999/xhtml\"><a name=\"ManufacturedItemDefinition_CopaliaHCT-EE-MID\"> </a><p class=\"res-header-id\"><b>Generated Narrative: ManufacturedItemDefinition CopaliaHCT-EE-MID</b></p><a name=\"CopaliaHCT-EE-MID\"> </a><a name=\"hcCopaliaHCT-EE-MID\"> </a><a name=\"CopaliaHCT-EE-MID-en-US\"> </a><p><b>status</b>: Active</p><p><b>manufacturedDoseForm</b>: <span title=\"Codes:{https://spor.ema.europa.eu/v1/lists/200000000004 100000073665}\">Film-coated tablet</span></p><p><b>unitOfPresentation</b>: <span title=\"Codes:{https://spor.ema.europa.eu/v1/lists/200000000014 200000002152}\">Tablet</span></p></div>"
      },
      "status" : "active",
      "manufacturedDoseForm" : {
        "coding" : [{
          "system" : "https://spor.ema.europa.eu/v1/lists/200000000004",
          "code" : "100000073665",
          "display" : "Film-coated tablet"
        }]
      },
      "unitOfPresentation" : {
        "coding" : [{
          "system" : "https://spor.ema.europa.eu/v1/lists/200000000014",
          "code" : "200000002152",
          "display" : "Tablet"
        }]
      }
    }
  },
  {
    "fullUrl" : "https://hl7-eu.github.io/unicom-ig/branches/mpd-r4b/Ingredient-CopaliaHCT-ingredient1-EE-I",
    "resource" : {
      "resourceType" : "Ingredient",
      "id" : "CopaliaHCT-ingredient1-EE-I",
      "meta" : {
        "profile" : ["http://unicom-project.eu/fhir/StructureDefinition/PPLIngredient"]
      },
      "text" : {
        "status" : "generated",
        "div" : "<div xmlns=\"http://www.w3.org/1999/xhtml\"><a name=\"Ingredient_CopaliaHCT-ingredient1-EE-I\"> </a><p class=\"res-header-id\"><b>Generated Narrative: Ingredient CopaliaHCT-ingredient1-EE-I</b></p><a name=\"CopaliaHCT-ingredient1-EE-I\"> </a><a name=\"hcCopaliaHCT-ingredient1-EE-I\"> </a><a name=\"CopaliaHCT-ingredient1-EE-I-en-US\"> </a><p><b>status</b>: Active</p><p><b>for</b>: </p><ul><li><a href=\"Bundle-015-CopaliaHCT-EE-FullProduct.html#MedicinalProductDefinition_CopaliaHCT-EE-MPD\">Bundle: type = collection</a></li><li><a href=\"Bundle-015-CopaliaHCT-EE-FullProduct.html#AdministrableProductDefinition_CopaliaHCT-EE-APD\">Bundle: type = collection</a></li><li><a href=\"Bundle-015-CopaliaHCT-EE-FullProduct.html#ManufacturedItemDefinition_CopaliaHCT-EE-MID\">Bundle: type = collection</a></li></ul><p><b>role</b>: <span title=\"Codes:{https://spor.ema.europa.eu/v1/lists/100000072050 100000072072}\">active</span></p><blockquote><p><b>substance</b></p><h3>Codes</h3><table class=\"grid\"><tr><td style=\"display: none\">-</td><td><b>Concept</b></td></tr><tr><td style=\"display: none\">*</td><td><span title=\"Codes:{https://spor.ema.europa.eu/v2/SubstanceDefinition 100000090079}\">Amlodipine besilate</span></td></tr></table><blockquote><p><b>strength</b></p><p><b>presentation</b>: 13.87 mg<span style=\"background: LightGoldenRodYellow\"> (Details: Unit of Measurement EMA  code100000110655 = 'milligram(s)')</span>/1 Tablet<span style=\"background: LightGoldenRodYellow\"> (Details: Unit of Presentation EMA  code200000002152 = 'Tablet')</span></p><blockquote><p><b>referenceStrength</b></p><h3>Substances</h3><table class=\"grid\"><tr><td style=\"display: none\">-</td><td><b>Concept</b></td></tr><tr><td style=\"display: none\">*</td><td><span title=\"Codes:{https://spor.ema.europa.eu/v2/SubstanceDefinition 100000085259}\">Amlodipine</span></td></tr></table><p><b>strength</b>: 10 mg<span style=\"background: LightGoldenRodYellow\"> (Details: Unit of Measurement EMA  code100000110655 = 'milligram(s)')</span>/1 Tablet<span style=\"background: LightGoldenRodYellow\"> (Details: Unit of Presentation EMA  code200000002152 = 'Tablet')</span></p></blockquote></blockquote></blockquote></div>"
      },
      "status" : "active",
      "for" : [{
        "reference" : "MedicinalProductDefinition/CopaliaHCT-EE-MPD"
      },
      {
        "reference" : "AdministrableProductDefinition/CopaliaHCT-EE-APD"
      },
      {
        "reference" : "ManufacturedItemDefinition/CopaliaHCT-EE-MID"
      }],
      "role" : {
        "coding" : [{
          "system" : "https://spor.ema.europa.eu/v1/lists/100000072050",
          "code" : "100000072072",
          "display" : "active"
        }]
      },
      "substance" : {
        "code" : {
          "concept" : {
            "coding" : [{
              "system" : "https://spor.ema.europa.eu/v2/SubstanceDefinition",
              "code" : "100000090079",
              "display" : "Amlodipine besilate"
            }]
          }
        },
        "strength" : [{
          "presentationRatio" : {
            "numerator" : {
              "value" : 13.87,
              "unit" : "mg",
              "system" : "https://spor.ema.europa.eu/v1/lists/100000110633",
              "code" : "100000110655"
            },
            "denominator" : {
              "value" : 1,
              "unit" : "Tablet",
              "system" : "https://spor.ema.europa.eu/v1/lists/200000000014",
              "code" : "200000002152"
            }
          },
          "referenceStrength" : [{
            "substance" : {
              "concept" : {
                "coding" : [{
                  "system" : "https://spor.ema.europa.eu/v2/SubstanceDefinition",
                  "code" : "100000085259",
                  "display" : "Amlodipine"
                }]
              }
            },
            "strengthRatio" : {
              "numerator" : {
                "value" : 10,
                "unit" : "mg",
                "system" : "https://spor.ema.europa.eu/v1/lists/100000110633",
                "code" : "100000110655"
              },
              "denominator" : {
                "value" : 1,
                "unit" : "Tablet",
                "system" : "https://spor.ema.europa.eu/v1/lists/200000000014",
                "code" : "200000002152"
              }
            }
          }]
        }]
      }
    }
  },
  {
    "fullUrl" : "https://hl7-eu.github.io/unicom-ig/branches/mpd-r4b/Ingredient-CopaliaHCT-ingredient2-EE-I",
    "resource" : {
      "resourceType" : "Ingredient",
      "id" : "CopaliaHCT-ingredient2-EE-I",
      "meta" : {
        "profile" : ["http://unicom-project.eu/fhir/StructureDefinition/PPLIngredient"]
      },
      "text" : {
        "status" : "generated",
        "div" : "<div xmlns=\"http://www.w3.org/1999/xhtml\"><a name=\"Ingredient_CopaliaHCT-ingredient2-EE-I\"> </a><p class=\"res-header-id\"><b>Generated Narrative: Ingredient CopaliaHCT-ingredient2-EE-I</b></p><a name=\"CopaliaHCT-ingredient2-EE-I\"> </a><a name=\"hcCopaliaHCT-ingredient2-EE-I\"> </a><a name=\"CopaliaHCT-ingredient2-EE-I-en-US\"> </a><p><b>status</b>: Active</p><p><b>for</b>: </p><ul><li><a href=\"Bundle-015-CopaliaHCT-EE-FullProduct.html#MedicinalProductDefinition_CopaliaHCT-EE-MPD\">Bundle: type = collection</a></li><li><a href=\"Bundle-015-CopaliaHCT-EE-FullProduct.html#AdministrableProductDefinition_CopaliaHCT-EE-APD\">Bundle: type = collection</a></li><li><a href=\"Bundle-015-CopaliaHCT-EE-FullProduct.html#ManufacturedItemDefinition_CopaliaHCT-EE-MID\">Bundle: type = collection</a></li></ul><p><b>role</b>: <span title=\"Codes:{https://spor.ema.europa.eu/v1/lists/100000072050 100000072072}\">active</span></p><blockquote><p><b>substance</b></p><h3>Codes</h3><table class=\"grid\"><tr><td style=\"display: none\">-</td><td><b>Concept</b></td></tr><tr><td style=\"display: none\">*</td><td><span title=\"Codes:{https://spor.ema.europa.eu/v2/SubstanceDefinition 100000088000}\">Valsartan</span></td></tr></table><blockquote><p><b>strength</b></p><p><b>presentation</b>: 160 mg<span style=\"background: LightGoldenRodYellow\"> (Details: Unit of Measurement EMA  code100000110655 = 'milligram(s)')</span>/1 Tablet<span style=\"background: LightGoldenRodYellow\"> (Details: Unit of Presentation EMA  code200000002152 = 'Tablet')</span></p><blockquote><p><b>referenceStrength</b></p><h3>Substances</h3><table class=\"grid\"><tr><td style=\"display: none\">-</td><td><b>Concept</b></td></tr><tr><td style=\"display: none\">*</td><td><span title=\"Codes:{https://spor.ema.europa.eu/v2/SubstanceDefinition 100000088000}\">Valsartan</span></td></tr></table><p><b>strength</b>: 160 mg<span style=\"background: LightGoldenRodYellow\"> (Details: Unit of Measurement EMA  code100000110655 = 'milligram(s)')</span>/1 Tablet<span style=\"background: LightGoldenRodYellow\"> (Details: Unit of Presentation EMA  code200000002152 = 'Tablet')</span></p></blockquote></blockquote></blockquote></div>"
      },
      "status" : "active",
      "for" : [{
        "reference" : "MedicinalProductDefinition/CopaliaHCT-EE-MPD"
      },
      {
        "reference" : "AdministrableProductDefinition/CopaliaHCT-EE-APD"
      },
      {
        "reference" : "ManufacturedItemDefinition/CopaliaHCT-EE-MID"
      }],
      "role" : {
        "coding" : [{
          "system" : "https://spor.ema.europa.eu/v1/lists/100000072050",
          "code" : "100000072072",
          "display" : "active"
        }]
      },
      "substance" : {
        "code" : {
          "concept" : {
            "coding" : [{
              "system" : "https://spor.ema.europa.eu/v2/SubstanceDefinition",
              "code" : "100000088000",
              "display" : "Valsartan"
            }]
          }
        },
        "strength" : [{
          "presentationRatio" : {
            "numerator" : {
              "value" : 160,
              "unit" : "mg",
              "system" : "https://spor.ema.europa.eu/v1/lists/100000110633",
              "code" : "100000110655"
            },
            "denominator" : {
              "value" : 1,
              "unit" : "Tablet",
              "system" : "https://spor.ema.europa.eu/v1/lists/200000000014",
              "code" : "200000002152"
            }
          },
          "referenceStrength" : [{
            "substance" : {
              "concept" : {
                "coding" : [{
                  "system" : "https://spor.ema.europa.eu/v2/SubstanceDefinition",
                  "code" : "100000088000",
                  "display" : "Valsartan"
                }]
              }
            },
            "strengthRatio" : {
              "numerator" : {
                "value" : 160,
                "unit" : "mg",
                "system" : "https://spor.ema.europa.eu/v1/lists/100000110633",
                "code" : "100000110655"
              },
              "denominator" : {
                "value" : 1,
                "unit" : "Tablet",
                "system" : "https://spor.ema.europa.eu/v1/lists/200000000014",
                "code" : "200000002152"
              }
            }
          }]
        }]
      }
    }
  },
  {
    "fullUrl" : "https://hl7-eu.github.io/unicom-ig/branches/mpd-r4b/Ingredient-CopaliaHCT-ingredient3-EE-I",
    "resource" : {
      "resourceType" : "Ingredient",
      "id" : "CopaliaHCT-ingredient3-EE-I",
      "meta" : {
        "profile" : ["http://unicom-project.eu/fhir/StructureDefinition/PPLIngredient"]
      },
      "text" : {
        "status" : "generated",
        "div" : "<div xmlns=\"http://www.w3.org/1999/xhtml\"><a name=\"Ingredient_CopaliaHCT-ingredient3-EE-I\"> </a><p class=\"res-header-id\"><b>Generated Narrative: Ingredient CopaliaHCT-ingredient3-EE-I</b></p><a name=\"CopaliaHCT-ingredient3-EE-I\"> </a><a name=\"hcCopaliaHCT-ingredient3-EE-I\"> </a><a name=\"CopaliaHCT-ingredient3-EE-I-en-US\"> </a><p><b>status</b>: Active</p><p><b>for</b>: </p><ul><li><a href=\"Bundle-015-CopaliaHCT-EE-FullProduct.html#MedicinalProductDefinition_CopaliaHCT-EE-MPD\">Bundle: type = collection</a></li><li><a href=\"Bundle-015-CopaliaHCT-EE-FullProduct.html#AdministrableProductDefinition_CopaliaHCT-EE-APD\">Bundle: type = collection</a></li><li><a href=\"Bundle-015-CopaliaHCT-EE-FullProduct.html#ManufacturedItemDefinition_CopaliaHCT-EE-MID\">Bundle: type = collection</a></li></ul><p><b>role</b>: <span title=\"Codes:{https://spor.ema.europa.eu/v1/lists/100000072050 100000072072}\">active</span></p><blockquote><p><b>substance</b></p><h3>Codes</h3><table class=\"grid\"><tr><td style=\"display: none\">-</td><td><b>Concept</b></td></tr><tr><td style=\"display: none\">*</td><td><span title=\"Codes:{https://spor.ema.europa.eu/v2/SubstanceDefinition 100000091737}\">Hydrochlorothiazide</span></td></tr></table><blockquote><p><b>strength</b></p><p><b>presentation</b>: 12.5 mg<span style=\"background: LightGoldenRodYellow\"> (Details: Unit of Measurement EMA  code100000110655 = 'milligram(s)')</span>/1 Tablet<span style=\"background: LightGoldenRodYellow\"> (Details: Unit of Presentation EMA  code200000002152 = 'Tablet')</span></p><blockquote><p><b>referenceStrength</b></p><h3>Substances</h3><table class=\"grid\"><tr><td style=\"display: none\">-</td><td><b>Concept</b></td></tr><tr><td style=\"display: none\">*</td><td><span title=\"Codes:{https://spor.ema.europa.eu/v2/SubstanceDefinition 100000091737}\">Hydrochlorothiazide</span></td></tr></table><p><b>strength</b>: 12.5 mg<span style=\"background: LightGoldenRodYellow\"> (Details: Unit of Measurement EMA  code100000110655 = 'milligram(s)')</span>/1 Tablet<span style=\"background: LightGoldenRodYellow\"> (Details: Unit of Presentation EMA  code200000002152 = 'Tablet')</span></p></blockquote></blockquote></blockquote></div>"
      },
      "status" : "active",
      "for" : [{
        "reference" : "MedicinalProductDefinition/CopaliaHCT-EE-MPD"
      },
      {
        "reference" : "AdministrableProductDefinition/CopaliaHCT-EE-APD"
      },
      {
        "reference" : "ManufacturedItemDefinition/CopaliaHCT-EE-MID"
      }],
      "role" : {
        "coding" : [{
          "system" : "https://spor.ema.europa.eu/v1/lists/100000072050",
          "code" : "100000072072",
          "display" : "active"
        }]
      },
      "substance" : {
        "code" : {
          "concept" : {
            "coding" : [{
              "system" : "https://spor.ema.europa.eu/v2/SubstanceDefinition",
              "code" : "100000091737",
              "display" : "Hydrochlorothiazide"
            }]
          }
        },
        "strength" : [{
          "presentationRatio" : {
            "numerator" : {
              "value" : 12.5,
              "unit" : "mg",
              "system" : "https://spor.ema.europa.eu/v1/lists/100000110633",
              "code" : "100000110655"
            },
            "denominator" : {
              "value" : 1,
              "unit" : "Tablet",
              "system" : "https://spor.ema.europa.eu/v1/lists/200000000014",
              "code" : "200000002152"
            }
          },
          "referenceStrength" : [{
            "substance" : {
              "concept" : {
                "coding" : [{
                  "system" : "https://spor.ema.europa.eu/v2/SubstanceDefinition",
                  "code" : "100000091737",
                  "display" : "Hydrochlorothiazide"
                }]
              }
            },
            "strengthRatio" : {
              "numerator" : {
                "value" : 12.5,
                "unit" : "mg",
                "system" : "https://spor.ema.europa.eu/v1/lists/100000110633",
                "code" : "100000110655"
              },
              "denominator" : {
                "value" : 1,
                "unit" : "Tablet",
                "system" : "https://spor.ema.europa.eu/v1/lists/200000000014",
                "code" : "200000002152"
              }
            }
          }]
        }]
      }
    }
  },
  {
    "fullUrl" : "https://hl7-eu.github.io/unicom-ig/branches/mpd-r4b/PackagedProductDefinition-CopaliaHCT-package1-EE-PPD",
    "resource" : {
      "resourceType" : "PackagedProductDefinition",
      "id" : "CopaliaHCT-package1-EE-PPD",
      "meta" : {
        "profile" : ["http://unicom-project.eu/fhir/StructureDefinition/PPLPackagedProductDefinition"]
      },
      "text" : {
        "status" : "generated",
        "div" : "<div xmlns=\"http://www.w3.org/1999/xhtml\"><a name=\"PackagedProductDefinition_CopaliaHCT-package1-EE-PPD\"> </a><p class=\"res-header-id\"><b>Generated Narrative: PackagedProductDefinition CopaliaHCT-package1-EE-PPD</b></p><a name=\"CopaliaHCT-package1-EE-PPD\"> </a><a name=\"hcCopaliaHCT-package1-EE-PPD\"> </a><a name=\"CopaliaHCT-package1-EE-PPD-en-US\"> </a><p><b>identifier</b>: <code>http://ema.europa.eu/example/pcid</code>/EE-100010531-3310-1448951</p><p><b>packageFor</b>: <a href=\"Bundle-015-CopaliaHCT-EE-FullProduct.html#MedicinalProductDefinition_CopaliaHCT-EE-MPD\">Bundle: type = collection</a></p><p><b>statusDate</b>: 2009-11-04</p><p><b>containedItemQuantity</b>: 28 Tablet<span style=\"background: LightGoldenRodYellow\"> (Details: Unit of Presentation EMA  code200000002152 = 'Tablet')</span></p><p><b>description</b>: </p><div><p>Package of 14</p>\n</div><h3>MarketingStatuses</h3><table class=\"grid\"><tr><td style=\"display: none\">-</td><td><b>Country</b></td><td><b>Status</b></td></tr><tr><td style=\"display: none\">*</td><td><span title=\"Codes:{https://spor.ema.europa.eu/v1/lists/100000000002 100000000388}\">Republic of Estonia</span></td><td><span title=\"Codes:{https://spor.ema.europa.eu/v1/lists/100000072052 100000072074}\">Not marketed</span></td></tr></table><blockquote><p><b>packaging</b></p><p><b>type</b>: <span title=\"Codes:{https://spor.ema.europa.eu/v1/lists/100000073346 100000073498}\">Box</span></p><p><b>quantity</b>: 1</p><blockquote><p><b>packaging</b></p></blockquote></blockquote></div>"
      },
      "identifier" : [{
        "system" : "http://ema.europa.eu/example/pcid",
        "value" : "EE-100010531-3310-1448951"
      }],
      "packageFor" : [{
        "reference" : "MedicinalProductDefinition/CopaliaHCT-EE-MPD"
      }],
      "statusDate" : "2009-11-04",
      "containedItemQuantity" : [{
        "value" : 28,
        "unit" : "Tablet",
        "system" : "https://spor.ema.europa.eu/v1/lists/200000000014",
        "code" : "200000002152"
      }],
      "description" : "Package of 14",
      "marketingStatus" : [{
        "country" : {
          "coding" : [{
            "system" : "https://spor.ema.europa.eu/v1/lists/100000000002",
            "code" : "100000000388",
            "display" : "Republic of Estonia"
          }]
        },
        "status" : {
          "coding" : [{
            "system" : "https://spor.ema.europa.eu/v1/lists/100000072052",
            "code" : "100000072074",
            "display" : "Not marketed"
          }]
        }
      }],
      "packaging" : {
        "type" : {
          "coding" : [{
            "system" : "https://spor.ema.europa.eu/v1/lists/100000073346",
            "code" : "100000073498",
            "display" : "Box"
          }]
        },
        "quantity" : 1,
        "packaging" : [{
          "type" : {
            "coding" : [{
              "system" : "https://spor.ema.europa.eu/v1/lists/100000073346",
              "code" : "100000073496",
              "display" : "Blister"
            }]
          },
          "quantity" : 1,
          "material" : [{
            "coding" : [{
              "system" : "https://spor.ema.europa.eu/v1/lists/200000003199",
              "code" : "200000003225",
              "display" : "PolyVinylidene Chloride"
            }]
          },
          {
            "coding" : [{
              "system" : "https://spor.ema.europa.eu/v1/lists/200000003199",
              "code" : "200000003222",
              "display" : "PolyVinyl Chloride"
            }]
          }],
          "containedItem" : [{
            "item" : {
              "reference" : {
                "reference" : "ManufacturedItemDefinition/CopaliaHCT-EE-MID"
              }
            },
            "amount" : {
              "value" : 14
            }
          }]
        }]
      }
    }
  },
  {
    "fullUrl" : "https://hl7-eu.github.io/unicom-ig/branches/mpd-r4b/PackagedProductDefinition-CopaliaHCT-package2-EE-PPD",
    "resource" : {
      "resourceType" : "PackagedProductDefinition",
      "id" : "CopaliaHCT-package2-EE-PPD",
      "meta" : {
        "profile" : ["http://unicom-project.eu/fhir/StructureDefinition/PPLPackagedProductDefinition"]
      },
      "text" : {
        "status" : "generated",
        "div" : "<div xmlns=\"http://www.w3.org/1999/xhtml\"><a name=\"PackagedProductDefinition_CopaliaHCT-package2-EE-PPD\"> </a><p class=\"res-header-id\"><b>Generated Narrative: PackagedProductDefinition CopaliaHCT-package2-EE-PPD</b></p><a name=\"CopaliaHCT-package2-EE-PPD\"> </a><a name=\"hcCopaliaHCT-package2-EE-PPD\"> </a><a name=\"CopaliaHCT-package2-EE-PPD-en-US\"> </a><p><b>identifier</b>: <code>http://ema.europa.eu/example/pcid</code>/EE-100010531-3310-1448962</p><p><b>packageFor</b>: <a href=\"Bundle-015-CopaliaHCT-EE-FullProduct.html#MedicinalProductDefinition_CopaliaHCT-EE-MPD\">Bundle: type = collection</a></p><p><b>statusDate</b>: 2009-11-04</p><p><b>containedItemQuantity</b>: 28 Tablet<span style=\"background: LightGoldenRodYellow\"> (Details: Unit of Presentation EMA  code200000002152 = 'Tablet')</span></p><p><b>description</b>: </p><div><p>Package of 28</p>\n</div><h3>MarketingStatuses</h3><table class=\"grid\"><tr><td style=\"display: none\">-</td><td><b>Country</b></td><td><b>Status</b></td></tr><tr><td style=\"display: none\">*</td><td><span title=\"Codes:{https://spor.ema.europa.eu/v1/lists/100000000002 100000000388}\">Republic of Estonia</span></td><td><span title=\"Codes:{https://spor.ema.europa.eu/v1/lists/100000072052 100000072074}\">Not marketed</span></td></tr></table><blockquote><p><b>packaging</b></p><p><b>type</b>: <span title=\"Codes:{https://spor.ema.europa.eu/v1/lists/100000073346 100000073498}\">Box</span></p><p><b>quantity</b>: 1</p><blockquote><p><b>packaging</b></p></blockquote></blockquote></div>"
      },
      "identifier" : [{
        "system" : "http://ema.europa.eu/example/pcid",
        "value" : "EE-100010531-3310-1448962"
      }],
      "packageFor" : [{
        "reference" : "MedicinalProductDefinition/CopaliaHCT-EE-MPD"
      }],
      "statusDate" : "2009-11-04",
      "containedItemQuantity" : [{
        "value" : 28,
        "unit" : "Tablet",
        "system" : "https://spor.ema.europa.eu/v1/lists/200000000014",
        "code" : "200000002152"
      }],
      "description" : "Package of 28",
      "marketingStatus" : [{
        "country" : {
          "coding" : [{
            "system" : "https://spor.ema.europa.eu/v1/lists/100000000002",
            "code" : "100000000388",
            "display" : "Republic of Estonia"
          }]
        },
        "status" : {
          "coding" : [{
            "system" : "https://spor.ema.europa.eu/v1/lists/100000072052",
            "code" : "100000072074",
            "display" : "Not marketed"
          }]
        }
      }],
      "packaging" : {
        "type" : {
          "coding" : [{
            "system" : "https://spor.ema.europa.eu/v1/lists/100000073346",
            "code" : "100000073498",
            "display" : "Box"
          }]
        },
        "quantity" : 1,
        "packaging" : [{
          "type" : {
            "coding" : [{
              "system" : "https://spor.ema.europa.eu/v1/lists/100000073346",
              "code" : "100000073496",
              "display" : "Blister"
            }]
          },
          "quantity" : 2,
          "material" : [{
            "coding" : [{
              "system" : "https://spor.ema.europa.eu/v1/lists/200000003199",
              "code" : "200000003225",
              "display" : "PolyVinylidene Chloride"
            }]
          },
          {
            "coding" : [{
              "system" : "https://spor.ema.europa.eu/v1/lists/200000003199",
              "code" : "200000003222",
              "display" : "PolyVinyl Chloride"
            }]
          }],
          "containedItem" : [{
            "item" : {
              "reference" : {
                "reference" : "ManufacturedItemDefinition/CopaliaHCT-EE-MID"
              }
            },
            "amount" : {
              "value" : 14
            }
          }]
        }]
      }
    }
  }]
}