{
  "resourceType" : "Bundle",
  "id" : "005-CanifugCremolum-EE-FullProduct",
  "type" : "collection",
  "entry" : [{
    "fullUrl" : "https://hl7-eu.github.io/unicom-ig/branches/mpd-r4b/MedicinalProductDefinition-CanifugCremolum-EE-MPD",
    "resource" : {
      "resourceType" : "MedicinalProductDefinition",
      "id" : "CanifugCremolum-EE-MPD",
      "meta" : {
        "profile" : ["http://unicom-project.eu/fhir/StructureDefinition/PPLMedicinalProductDefinition"]
      },
      "text" : {
        "status" : "generated",
        "div" : "<div xmlns=\"http://www.w3.org/1999/xhtml\"><a name=\"MedicinalProductDefinition_CanifugCremolum-EE-MPD\"> </a><p class=\"res-header-id\"><b>Generated Narrative: MedicinalProductDefinition CanifugCremolum-EE-MPD</b></p><a name=\"CanifugCremolum-EE-MPD\"> </a><a name=\"hcCanifugCremolum-EE-MPD\"> </a><a name=\"CanifugCremolum-EE-MPD-en-US\"> </a><p><b>identifier</b>: <code>http://ema.europa.eu/fhir/mpId</code>/EE-100004795-10280, <code>http://ema.europa.eu/fhir/pmsId</code>/EE00000003</p><p><b>domain</b>: <span title=\"Codes:{https://spor.ema.europa.eu/v1/lists/100000000004 100000000012}\">Human use</span></p><p><b>status</b>: <span title=\"Codes:{https://spor.ema.europa.eu/v1/lists/200000005003 200000005004}\">Current</span></p><p><b>combinedPharmaceuticalDoseForm</b>: <span title=\"Codes:{https://spor.ema.europa.eu/v1/lists/200000000008 100000173972}\">Cream + pessary</span></p><p><b>legalStatusOfSupply</b>: <span title=\"Codes:{https://spor.ema.europa.eu/v1/lists/100000072051 100000072084}\">Medicinal Product subject to medical prescription</span></p><p><b>classification</b>: <span title=\"Codes:{https://spor.ema.europa.eu/v1/lists/100000093533 100000095693}\">clotrimazole</span>, <span title=\"Codes:{http://www.whocc.no/atc G01AF02}\">clotrimazole</span></p><blockquote><p><b>name</b></p><p><b>productName</b>: Canifug Cremolum</p><h3>Parts</h3><table class=\"grid\"><tr><td style=\"display: none\">-</td><td><b>Part</b></td><td><b>Type</b></td></tr><tr><td style=\"display: none\">*</td><td>Canifug Cremolum</td><td><span title=\"Codes:{https://spor.ema.europa.eu/v1/lists/220000000000 220000000002}\">Invented name part</span></td></tr></table><h3>Usages</h3><table class=\"grid\"><tr><td style=\"display: none\">-</td><td><b>Country</b></td><td><b>Language</b></td></tr><tr><td style=\"display: none\">*</td><td><span title=\"Codes:{https://spor.ema.europa.eu/v1/lists/100000000002 100000000388}\">Republic of Estonia</span></td><td><span title=\"Codes:{urn:ietf:bcp:47 et}\">Estonian</span></td></tr></table></blockquote></div>"
      },
      "identifier" : [{
        "system" : "http://ema.europa.eu/fhir/mpId",
        "value" : "EE-100004795-10280"
      },
      {
        "system" : "http://ema.europa.eu/fhir/pmsId",
        "value" : "EE00000003"
      }],
      "domain" : {
        "coding" : [{
          "system" : "https://spor.ema.europa.eu/v1/lists/100000000004",
          "code" : "100000000012",
          "display" : "Human use"
        }]
      },
      "status" : {
        "coding" : [{
          "system" : "https://spor.ema.europa.eu/v1/lists/200000005003",
          "code" : "200000005004",
          "display" : "Current"
        }]
      },
      "combinedPharmaceuticalDoseForm" : {
        "coding" : [{
          "system" : "https://spor.ema.europa.eu/v1/lists/200000000008",
          "code" : "100000173972",
          "display" : "Cream + pessary"
        }]
      },
      "legalStatusOfSupply" : {
        "coding" : [{
          "system" : "https://spor.ema.europa.eu/v1/lists/100000072051",
          "code" : "100000072084",
          "display" : "Medicinal Product subject to medical prescription"
        }]
      },
      "classification" : [{
        "coding" : [{
          "system" : "https://spor.ema.europa.eu/v1/lists/100000093533",
          "code" : "100000095693",
          "display" : "clotrimazole"
        }]
      },
      {
        "coding" : [{
          "system" : "http://www.whocc.no/atc",
          "code" : "G01AF02",
          "display" : "clotrimazole"
        }]
      }],
      "name" : [{
        "productName" : "Canifug Cremolum",
        "part" : [{
          "part" : "Canifug Cremolum",
          "type" : {
            "coding" : [{
              "system" : "https://spor.ema.europa.eu/v1/lists/220000000000",
              "code" : "220000000002",
              "display" : "Invented name part"
            }]
          }
        }],
        "usage" : [{
          "country" : {
            "coding" : [{
              "system" : "https://spor.ema.europa.eu/v1/lists/100000000002",
              "code" : "100000000388",
              "display" : "Republic of Estonia"
            }]
          },
          "language" : {
            "coding" : [{
              "system" : "urn:ietf:bcp:47",
              "code" : "et",
              "display" : "Estonian"
            }]
          }
        }]
      }]
    }
  },
  {
    "fullUrl" : "https://hl7-eu.github.io/unicom-ig/branches/mpd-r4b/RegulatedAuthorization-CanifugCremolum-EE-RA",
    "resource" : {
      "resourceType" : "RegulatedAuthorization",
      "id" : "CanifugCremolum-EE-RA",
      "meta" : {
        "profile" : ["http://unicom-project.eu/fhir/StructureDefinition/PPLRegulatedAuthorization"]
      },
      "text" : {
        "status" : "generated",
        "div" : "<div xmlns=\"http://www.w3.org/1999/xhtml\"><a name=\"RegulatedAuthorization_CanifugCremolum-EE-RA\"> </a><p class=\"res-header-id\"><b>Generated Narrative: RegulatedAuthorization CanifugCremolum-EE-RA</b></p><a name=\"CanifugCremolum-EE-RA\"> </a><a name=\"hcCanifugCremolum-EE-RA\"> </a><a name=\"CanifugCremolum-EE-RA-en-US\"> </a><p><b>identifier</b>: 366201</p><p><b>subject</b>: <a href=\"MedicinalProductDefinition-CanifugCremolum-EE-MPD.html\">MedicinalProductDefinition: identifier = http://ema.europa.eu/fhir/mpId#EE-100004795-10280,http://ema.europa.eu/fhir/pmsId#EE00000003; domain = Human use; status = Current; combinedPharmaceuticalDoseForm = Cream + pessary; legalStatusOfSupply = Medicinal Product subject to medical prescription; classification = clotrimazole,clotrimazole</a></p><p><b>type</b>: <span title=\"Codes:{https://spor.ema.europa.eu/v1/lists/220000000060 220000000061}\">Marketing Authorisation</span></p><p><b>region</b>: <span title=\"Codes:{https://spor.ema.europa.eu/v1/lists/100000000002 100000000388}\">Republic of Estonia</span></p><p><b>status</b>: <span title=\"Codes:{https://spor.ema.europa.eu/v1/lists/100000072049 200000017708}\">Valid - Renewed/Varied</span></p><p><b>statusDate</b>: 2011-10-19</p><p><b>holder</b>: <a href=\"Organization-LOC-100004795-Wolff-Arzneimittel.html\">Organization Dr. August Wolff GmbH &amp; Co. KG Arzneimittel</a></p></div>"
      },
      "identifier" : [{
        "value" : "366201"
      }],
      "subject" : [{
        "reference" : "MedicinalProductDefinition/CanifugCremolum-EE-MPD"
      }],
      "type" : {
        "coding" : [{
          "system" : "https://spor.ema.europa.eu/v1/lists/220000000060",
          "code" : "220000000061",
          "display" : "Marketing Authorisation"
        }]
      },
      "region" : [{
        "coding" : [{
          "system" : "https://spor.ema.europa.eu/v1/lists/100000000002",
          "code" : "100000000388",
          "display" : "Republic of Estonia"
        }]
      }],
      "status" : {
        "coding" : [{
          "system" : "https://spor.ema.europa.eu/v1/lists/100000072049",
          "code" : "200000017708",
          "display" : "Valid - Renewed/Varied"
        }]
      },
      "statusDate" : "2011-10-19",
      "holder" : {
        "reference" : "Organization/LOC-100004795-Wolff-Arzneimittel"
      }
    }
  },
  {
    "fullUrl" : "https://hl7-eu.github.io/unicom-ig/branches/mpd-r4b/Organization-LOC-100004795-Wolff-Arzneimittel",
    "resource" : {
      "resourceType" : "Organization",
      "id" : "LOC-100004795-Wolff-Arzneimittel",
      "meta" : {
        "profile" : ["http://unicom-project.eu/fhir/StructureDefinition/PPLOrganization"]
      },
      "text" : {
        "status" : "generated",
        "div" : "<div xmlns=\"http://www.w3.org/1999/xhtml\"><a name=\"Organization_LOC-100004795-Wolff-Arzneimittel\"> </a><p class=\"res-header-id\"><b>Generated Narrative: Organization LOC-100004795-Wolff-Arzneimittel</b></p><a name=\"LOC-100004795-Wolff-Arzneimittel\"> </a><a name=\"hcLOC-100004795-Wolff-Arzneimittel\"> </a><a name=\"LOC-100004795-Wolff-Arzneimittel-en-US\"> </a><p><b>identifier</b>: <code>https://spor.ema.europa.eu/v1/locations</code>/LOC-100004795</p><p><b>name</b>: Dr. August Wolff GmbH &amp; Co. KG Arzneimittel</p></div>"
      },
      "identifier" : [{
        "system" : "https://spor.ema.europa.eu/v1/locations",
        "value" : "LOC-100004795"
      }],
      "name" : "Dr. August Wolff GmbH & Co. KG Arzneimittel"
    }
  },
  {
    "fullUrl" : "https://hl7-eu.github.io/unicom-ig/branches/mpd-r4b/AdministrableProductDefinition-CanifugCremolum-10mg1g-Cream-EE-APD",
    "resource" : {
      "resourceType" : "AdministrableProductDefinition",
      "id" : "CanifugCremolum-10mg1g-Cream-EE-APD",
      "meta" : {
        "profile" : ["http://unicom-project.eu/fhir/StructureDefinition/PPLAdministrableProductDefinition"]
      },
      "text" : {
        "status" : "generated",
        "div" : "<div xmlns=\"http://www.w3.org/1999/xhtml\"><a name=\"AdministrableProductDefinition_CanifugCremolum-10mg1g-Cream-EE-APD\"> </a><p class=\"res-header-id\"><b>Generated Narrative: AdministrableProductDefinition CanifugCremolum-10mg1g-Cream-EE-APD</b></p><a name=\"CanifugCremolum-10mg1g-Cream-EE-APD\"> </a><a name=\"hcCanifugCremolum-10mg1g-Cream-EE-APD\"> </a><a name=\"CanifugCremolum-10mg1g-Cream-EE-APD-en-US\"> </a><p><b>status</b>: Active</p><p><b>formOf</b>: <a href=\"MedicinalProductDefinition-CanifugCremolum-EE-MPD.html\">MedicinalProductDefinition: identifier = http://ema.europa.eu/fhir/mpId#EE-100004795-10280,http://ema.europa.eu/fhir/pmsId#EE00000003; domain = Human use; status = Current; combinedPharmaceuticalDoseForm = Cream + pessary; legalStatusOfSupply = Medicinal Product subject to medical prescription; classification = clotrimazole,clotrimazole</a></p><p><b>administrableDoseForm</b>: <span title=\"Codes:{https://spor.ema.europa.eu/v1/lists/200000000004 100000073712}\">Cream</span></p><p><b>unitOfPresentation</b>: <span title=\"Codes:{https://spor.ema.europa.eu/v1/lists/200000000014 200000002156}\">Tube</span></p><p><b>producedFrom</b>: <a href=\"ManufacturedItemDefinition-CanifugCremolum-10mg1g-Cream-EE-MID.html\">ManufacturedItemDefinition: status = active; manufacturedDoseForm = Cream; unitOfPresentation = Tube</a></p><h3>RouteOfAdministrations</h3><table class=\"grid\"><tr><td style=\"display: none\">-</td><td><b>Code</b></td></tr><tr><td style=\"display: none\">*</td><td><span title=\"Codes:{https://spor.ema.europa.eu/v1/lists/100000073345 100000073566}\">Cutaneous use</span></td></tr></table></div>"
      },
      "status" : "active",
      "formOf" : [{
        "reference" : "MedicinalProductDefinition/CanifugCremolum-EE-MPD"
      }],
      "administrableDoseForm" : {
        "coding" : [{
          "system" : "https://spor.ema.europa.eu/v1/lists/200000000004",
          "code" : "100000073712",
          "display" : "Cream"
        }]
      },
      "unitOfPresentation" : {
        "coding" : [{
          "system" : "https://spor.ema.europa.eu/v1/lists/200000000014",
          "code" : "200000002156",
          "display" : "Tube"
        }]
      },
      "producedFrom" : [{
        "reference" : "ManufacturedItemDefinition/CanifugCremolum-10mg1g-Cream-EE-MID"
      }],
      "routeOfAdministration" : [{
        "code" : {
          "coding" : [{
            "system" : "https://spor.ema.europa.eu/v1/lists/100000073345",
            "code" : "100000073566",
            "display" : "Cutaneous use"
          }]
        }
      }]
    }
  },
  {
    "fullUrl" : "https://hl7-eu.github.io/unicom-ig/branches/mpd-r4b/AdministrableProductDefinition-CanifugCremolum-100mg-Pessary-EE-APD",
    "resource" : {
      "resourceType" : "AdministrableProductDefinition",
      "id" : "CanifugCremolum-100mg-Pessary-EE-APD",
      "meta" : {
        "profile" : ["http://unicom-project.eu/fhir/StructureDefinition/PPLAdministrableProductDefinition"]
      },
      "text" : {
        "status" : "generated",
        "div" : "<div xmlns=\"http://www.w3.org/1999/xhtml\"><a name=\"AdministrableProductDefinition_CanifugCremolum-100mg-Pessary-EE-APD\"> </a><p class=\"res-header-id\"><b>Generated Narrative: AdministrableProductDefinition CanifugCremolum-100mg-Pessary-EE-APD</b></p><a name=\"CanifugCremolum-100mg-Pessary-EE-APD\"> </a><a name=\"hcCanifugCremolum-100mg-Pessary-EE-APD\"> </a><a name=\"CanifugCremolum-100mg-Pessary-EE-APD-en-US\"> </a><p><b>status</b>: Active</p><p><b>formOf</b>: <a href=\"MedicinalProductDefinition-CanifugCremolum-EE-MPD.html\">MedicinalProductDefinition: identifier = http://ema.europa.eu/fhir/mpId#EE-100004795-10280,http://ema.europa.eu/fhir/pmsId#EE00000003; domain = Human use; status = Current; combinedPharmaceuticalDoseForm = Cream + pessary; legalStatusOfSupply = Medicinal Product subject to medical prescription; classification = clotrimazole,clotrimazole</a></p><p><b>administrableDoseForm</b>: <span title=\"Codes:{https://spor.ema.europa.eu/v1/lists/200000000004 100000073815}\">Pessary</span></p><p><b>unitOfPresentation</b>: <span title=\"Codes:{https://spor.ema.europa.eu/v1/lists/200000000014 200000002137}\">Pessary</span></p><p><b>producedFrom</b>: <a href=\"ManufacturedItemDefinition-CanifugCremolum-100mg-Pessary-EE-MID.html\">ManufacturedItemDefinition: status = active; manufacturedDoseForm = Pessary; unitOfPresentation = Pessary</a></p><h3>RouteOfAdministrations</h3><table class=\"grid\"><tr><td style=\"display: none\">-</td><td><b>Code</b></td></tr><tr><td style=\"display: none\">*</td><td><span title=\"Codes:{https://spor.ema.europa.eu/v1/lists/100000073345 100000073639}\">Vaginal use</span></td></tr></table></div>"
      },
      "status" : "active",
      "formOf" : [{
        "reference" : "MedicinalProductDefinition/CanifugCremolum-EE-MPD"
      }],
      "administrableDoseForm" : {
        "coding" : [{
          "system" : "https://spor.ema.europa.eu/v1/lists/200000000004",
          "code" : "100000073815",
          "display" : "Pessary"
        }]
      },
      "unitOfPresentation" : {
        "coding" : [{
          "system" : "https://spor.ema.europa.eu/v1/lists/200000000014",
          "code" : "200000002137",
          "display" : "Pessary"
        }]
      },
      "producedFrom" : [{
        "reference" : "ManufacturedItemDefinition/CanifugCremolum-100mg-Pessary-EE-MID"
      }],
      "routeOfAdministration" : [{
        "code" : {
          "coding" : [{
            "system" : "https://spor.ema.europa.eu/v1/lists/100000073345",
            "code" : "100000073639",
            "display" : "Vaginal use"
          }]
        }
      }]
    }
  },
  {
    "fullUrl" : "https://hl7-eu.github.io/unicom-ig/branches/mpd-r4b/ManufacturedItemDefinition-CanifugCremolum-10mg1g-Cream-EE-MID",
    "resource" : {
      "resourceType" : "ManufacturedItemDefinition",
      "id" : "CanifugCremolum-10mg1g-Cream-EE-MID",
      "meta" : {
        "profile" : ["http://unicom-project.eu/fhir/StructureDefinition/PPLManufacturedItemDefinition"]
      },
      "text" : {
        "status" : "generated",
        "div" : "<div xmlns=\"http://www.w3.org/1999/xhtml\"><a name=\"ManufacturedItemDefinition_CanifugCremolum-10mg1g-Cream-EE-MID\"> </a><p class=\"res-header-id\"><b>Generated Narrative: ManufacturedItemDefinition CanifugCremolum-10mg1g-Cream-EE-MID</b></p><a name=\"CanifugCremolum-10mg1g-Cream-EE-MID\"> </a><a name=\"hcCanifugCremolum-10mg1g-Cream-EE-MID\"> </a><a name=\"CanifugCremolum-10mg1g-Cream-EE-MID-en-US\"> </a><p><b>status</b>: Active</p><p><b>manufacturedDoseForm</b>: <span title=\"Codes:{https://spor.ema.europa.eu/v1/lists/200000000004 100000073712}\">Cream</span></p><p><b>unitOfPresentation</b>: <span title=\"Codes:{https://spor.ema.europa.eu/v1/lists/200000000014 200000002156}\">Tube</span></p></div>"
      },
      "status" : "active",
      "manufacturedDoseForm" : {
        "coding" : [{
          "system" : "https://spor.ema.europa.eu/v1/lists/200000000004",
          "code" : "100000073712",
          "display" : "Cream"
        }]
      },
      "unitOfPresentation" : {
        "coding" : [{
          "system" : "https://spor.ema.europa.eu/v1/lists/200000000014",
          "code" : "200000002156",
          "display" : "Tube"
        }]
      }
    }
  },
  {
    "fullUrl" : "https://hl7-eu.github.io/unicom-ig/branches/mpd-r4b/ManufacturedItemDefinition-CanifugCremolum-100mg-Pessary-EE-MID",
    "resource" : {
      "resourceType" : "ManufacturedItemDefinition",
      "id" : "CanifugCremolum-100mg-Pessary-EE-MID",
      "meta" : {
        "profile" : ["http://unicom-project.eu/fhir/StructureDefinition/PPLManufacturedItemDefinition"]
      },
      "text" : {
        "status" : "generated",
        "div" : "<div xmlns=\"http://www.w3.org/1999/xhtml\"><a name=\"ManufacturedItemDefinition_CanifugCremolum-100mg-Pessary-EE-MID\"> </a><p class=\"res-header-id\"><b>Generated Narrative: ManufacturedItemDefinition CanifugCremolum-100mg-Pessary-EE-MID</b></p><a name=\"CanifugCremolum-100mg-Pessary-EE-MID\"> </a><a name=\"hcCanifugCremolum-100mg-Pessary-EE-MID\"> </a><a name=\"CanifugCremolum-100mg-Pessary-EE-MID-en-US\"> </a><p><b>status</b>: Active</p><p><b>manufacturedDoseForm</b>: <span title=\"Codes:{https://spor.ema.europa.eu/v1/lists/200000000004 100000073815}\">Pessary</span></p><p><b>unitOfPresentation</b>: <span title=\"Codes:{https://spor.ema.europa.eu/v1/lists/200000000014 200000002137}\">Pessary</span></p></div>"
      },
      "status" : "active",
      "manufacturedDoseForm" : {
        "coding" : [{
          "system" : "https://spor.ema.europa.eu/v1/lists/200000000004",
          "code" : "100000073815",
          "display" : "Pessary"
        }]
      },
      "unitOfPresentation" : {
        "coding" : [{
          "system" : "https://spor.ema.europa.eu/v1/lists/200000000014",
          "code" : "200000002137",
          "display" : "Pessary"
        }]
      }
    }
  },
  {
    "fullUrl" : "https://hl7-eu.github.io/unicom-ig/branches/mpd-r4b/Ingredient-CanifugCremolum-10mg1g-Cream-EE-I",
    "resource" : {
      "resourceType" : "Ingredient",
      "id" : "CanifugCremolum-10mg1g-Cream-EE-I",
      "meta" : {
        "profile" : ["http://unicom-project.eu/fhir/StructureDefinition/PPLIngredient"]
      },
      "text" : {
        "status" : "generated",
        "div" : "<div xmlns=\"http://www.w3.org/1999/xhtml\"><a name=\"Ingredient_CanifugCremolum-10mg1g-Cream-EE-I\"> </a><p class=\"res-header-id\"><b>Generated Narrative: Ingredient CanifugCremolum-10mg1g-Cream-EE-I</b></p><a name=\"CanifugCremolum-10mg1g-Cream-EE-I\"> </a><a name=\"hcCanifugCremolum-10mg1g-Cream-EE-I\"> </a><a name=\"CanifugCremolum-10mg1g-Cream-EE-I-en-US\"> </a><p><b>status</b>: Active</p><p><b>for</b>: </p><ul><li><a href=\"MedicinalProductDefinition-CanifugCremolum-EE-MPD.html\">MedicinalProductDefinition: identifier = http://ema.europa.eu/fhir/mpId#EE-100004795-10280,http://ema.europa.eu/fhir/pmsId#EE00000003; domain = Human use; status = Current; combinedPharmaceuticalDoseForm = Cream + pessary; legalStatusOfSupply = Medicinal Product subject to medical prescription; classification = clotrimazole,clotrimazole</a></li><li><a href=\"ManufacturedItemDefinition-CanifugCremolum-10mg1g-Cream-EE-MID.html\">ManufacturedItemDefinition: status = active; manufacturedDoseForm = Cream; unitOfPresentation = Tube</a></li><li><a href=\"AdministrableProductDefinition-CanifugCremolum-10mg1g-Cream-EE-APD.html\">AdministrableProductDefinition: status = active; administrableDoseForm = Cream; unitOfPresentation = Tube</a></li></ul><p><b>role</b>: <span title=\"Codes:{https://spor.ema.europa.eu/v1/lists/100000072050 100000072072}\">Active</span></p><blockquote><p><b>substance</b></p><h3>Codes</h3><table class=\"grid\"><tr><td style=\"display: none\">-</td><td><b>Concept</b></td></tr><tr><td style=\"display: none\">*</td><td><span title=\"Codes:{https://spor.ema.europa.eu/v2/SubstanceDefinition 100000092074}\">CLOTRIMAZOLE</span></td></tr></table><h3>Strengths</h3><table class=\"grid\"><tr><td style=\"display: none\">-</td><td><b>Concentration[x]</b></td></tr><tr><td style=\"display: none\">*</td><td>10 milligram(s)<span style=\"background: LightGoldenRodYellow\"> (Details: Unit of Measurement EMA  code100000110655 = 'milligram(s)')</span>/1 gram(s)<span style=\"background: LightGoldenRodYellow\"> (Details: Unit of Measurement EMA  code100000110654 = 'gram(s)')</span></td></tr></table></blockquote></div>"
      },
      "status" : "active",
      "for" : [{
        "reference" : "MedicinalProductDefinition/CanifugCremolum-EE-MPD"
      },
      {
        "reference" : "ManufacturedItemDefinition/CanifugCremolum-10mg1g-Cream-EE-MID"
      },
      {
        "reference" : "AdministrableProductDefinition/CanifugCremolum-10mg1g-Cream-EE-APD"
      }],
      "role" : {
        "coding" : [{
          "system" : "https://spor.ema.europa.eu/v1/lists/100000072050",
          "code" : "100000072072",
          "display" : "Active"
        }]
      },
      "substance" : {
        "code" : {
          "concept" : {
            "coding" : [{
              "system" : "https://spor.ema.europa.eu/v2/SubstanceDefinition",
              "code" : "100000092074",
              "display" : "CLOTRIMAZOLE"
            }]
          }
        },
        "strength" : [{
          "concentrationRatio" : {
            "numerator" : {
              "value" : 10,
              "unit" : "milligram(s)",
              "system" : "https://spor.ema.europa.eu/v1/lists/100000110633",
              "code" : "100000110655"
            },
            "denominator" : {
              "value" : 1,
              "unit" : "gram(s)",
              "system" : "https://spor.ema.europa.eu/v1/lists/100000110633",
              "code" : "100000110654"
            }
          }
        }]
      }
    }
  },
  {
    "fullUrl" : "https://hl7-eu.github.io/unicom-ig/branches/mpd-r4b/Ingredient-CanifugCremolum-100mg-Pessary-EE-I",
    "resource" : {
      "resourceType" : "Ingredient",
      "id" : "CanifugCremolum-100mg-Pessary-EE-I",
      "meta" : {
        "profile" : ["http://unicom-project.eu/fhir/StructureDefinition/PPLIngredient"]
      },
      "text" : {
        "status" : "generated",
        "div" : "<div xmlns=\"http://www.w3.org/1999/xhtml\"><a name=\"Ingredient_CanifugCremolum-100mg-Pessary-EE-I\"> </a><p class=\"res-header-id\"><b>Generated Narrative: Ingredient CanifugCremolum-100mg-Pessary-EE-I</b></p><a name=\"CanifugCremolum-100mg-Pessary-EE-I\"> </a><a name=\"hcCanifugCremolum-100mg-Pessary-EE-I\"> </a><a name=\"CanifugCremolum-100mg-Pessary-EE-I-en-US\"> </a><p><b>status</b>: Active</p><p><b>for</b>: </p><ul><li><a href=\"MedicinalProductDefinition-CanifugCremolum-EE-MPD.html\">MedicinalProductDefinition: identifier = http://ema.europa.eu/fhir/mpId#EE-100004795-10280,http://ema.europa.eu/fhir/pmsId#EE00000003; domain = Human use; status = Current; combinedPharmaceuticalDoseForm = Cream + pessary; legalStatusOfSupply = Medicinal Product subject to medical prescription; classification = clotrimazole,clotrimazole</a></li><li><a href=\"ManufacturedItemDefinition-CanifugCremolum-100mg-Pessary-EE-MID.html\">ManufacturedItemDefinition: status = active; manufacturedDoseForm = Pessary; unitOfPresentation = Pessary</a></li><li><a href=\"AdministrableProductDefinition-CanifugCremolum-100mg-Pessary-EE-APD.html\">AdministrableProductDefinition: status = active; administrableDoseForm = Pessary; unitOfPresentation = Pessary</a></li></ul><p><b>role</b>: <span title=\"Codes:{https://spor.ema.europa.eu/v1/lists/100000072050 100000072072}\">Active</span></p><blockquote><p><b>substance</b></p><h3>Codes</h3><table class=\"grid\"><tr><td style=\"display: none\">-</td><td><b>Concept</b></td></tr><tr><td style=\"display: none\">*</td><td><span title=\"Codes:{https://spor.ema.europa.eu/v2/SubstanceDefinition 100000092074}\">CLOTRIMAZOLE</span></td></tr></table><h3>Strengths</h3><table class=\"grid\"><tr><td style=\"display: none\">-</td><td><b>Presentation[x]</b></td></tr><tr><td style=\"display: none\">*</td><td>100 milligram(s)<span style=\"background: LightGoldenRodYellow\"> (Details: Unit of Measurement EMA  code100000110655 = 'milligram(s)')</span>/1 Pessary<span style=\"background: LightGoldenRodYellow\"> (Details: Unit of Presentation EMA  code200000002137 = 'Pessary')</span></td></tr></table></blockquote></div>"
      },
      "status" : "active",
      "for" : [{
        "reference" : "MedicinalProductDefinition/CanifugCremolum-EE-MPD"
      },
      {
        "reference" : "ManufacturedItemDefinition/CanifugCremolum-100mg-Pessary-EE-MID"
      },
      {
        "reference" : "AdministrableProductDefinition/CanifugCremolum-100mg-Pessary-EE-APD"
      }],
      "role" : {
        "coding" : [{
          "system" : "https://spor.ema.europa.eu/v1/lists/100000072050",
          "code" : "100000072072",
          "display" : "Active"
        }]
      },
      "substance" : {
        "code" : {
          "concept" : {
            "coding" : [{
              "system" : "https://spor.ema.europa.eu/v2/SubstanceDefinition",
              "code" : "100000092074",
              "display" : "CLOTRIMAZOLE"
            }]
          }
        },
        "strength" : [{
          "presentationRatio" : {
            "numerator" : {
              "value" : 100,
              "unit" : "milligram(s)",
              "system" : "https://spor.ema.europa.eu/v1/lists/100000110633",
              "code" : "100000110655"
            },
            "denominator" : {
              "value" : 1,
              "unit" : "Pessary",
              "system" : "https://spor.ema.europa.eu/v1/lists/200000000014",
              "code" : "200000002137"
            }
          }
        }]
      }
    }
  },
  {
    "fullUrl" : "https://hl7-eu.github.io/unicom-ig/branches/mpd-r4b/PackagedProductDefinition-CanifugCremolum-EE-PPD-1033692",
    "resource" : {
      "resourceType" : "PackagedProductDefinition",
      "id" : "CanifugCremolum-EE-PPD-1033692",
      "meta" : {
        "profile" : ["http://unicom-project.eu/fhir/StructureDefinition/PPLPackagedProductDefinition"]
      },
      "text" : {
        "status" : "generated",
        "div" : "<div xmlns=\"http://www.w3.org/1999/xhtml\"><a name=\"PackagedProductDefinition_CanifugCremolum-EE-PPD-1033692\"> </a><p class=\"res-header-id\"><b>Generated Narrative: PackagedProductDefinition CanifugCremolum-EE-PPD-1033692</b></p><a name=\"CanifugCremolum-EE-PPD-1033692\"> </a><a name=\"hcCanifugCremolum-EE-PPD-1033692\"> </a><a name=\"CanifugCremolum-EE-PPD-1033692-en-US\"> </a><p><b>identifier</b>: <code>http://ema.europa.eu/example/pcid</code>/EE-100004795-10280-1033692</p><p><b>packageFor</b>: <a href=\"MedicinalProductDefinition-CanifugCremolum-EE-MPD.html\">MedicinalProductDefinition: identifier = http://ema.europa.eu/fhir/mpId#EE-100004795-10280,http://ema.europa.eu/fhir/pmsId#EE00000003; domain = Human use; status = Current; combinedPharmaceuticalDoseForm = Cream + pessary; legalStatusOfSupply = Medicinal Product subject to medical prescription; classification = clotrimazole,clotrimazole</a></p><p><b>containedItemQuantity</b>: 6 Pessary<span style=\"background: LightGoldenRodYellow\"> (Details: Unit of Presentation EMA  code200000002137 = 'Pessary')</span>, 1 Tube<span style=\"background: LightGoldenRodYellow\"> (Details: Unit of Presentation EMA  code200000002156 = 'Tube')</span></p><p><b>description</b>: </p><div><p>Alu/PE-fooliumist valmistatud ribapakend, mis on asetatud väliskarpi. Kreem on alumiiniumtuubis ja omakorda pappkarbis. Kombineeritud pakend sisaldab: 6 vaginaalsuposiiti ja 20 g kreemi</p>\n</div><h3>MarketingStatuses</h3><table class=\"grid\"><tr><td style=\"display: none\">-</td><td><b>Country</b></td><td><b>Status</b></td></tr><tr><td style=\"display: none\">*</td><td><span title=\"Codes:{https://spor.ema.europa.eu/v1/lists/100000000002 100000000388}\">Republic of Estonia</span></td><td><span title=\"Codes:{https://spor.ema.europa.eu/v1/lists/100000072052 100000072083}\">Marketed</span></td></tr></table><blockquote><p><b>packaging</b></p><p><b>type</b>: <span title=\"Codes:{https://spor.ema.europa.eu/v1/lists/100000073346 100000073498}\">Box</span></p><p><b>quantity</b>: 1</p><p><b>material</b>: <span title=\"Codes:{https://spor.ema.europa.eu/v1/lists/200000003199 200000003529}\">Cardboard</span></p><blockquote><p><b>packaging</b></p></blockquote><blockquote><p><b>packaging</b></p></blockquote></blockquote></div>"
      },
      "identifier" : [{
        "system" : "http://ema.europa.eu/example/pcid",
        "value" : "EE-100004795-10280-1033692"
      }],
      "packageFor" : [{
        "reference" : "MedicinalProductDefinition/CanifugCremolum-EE-MPD"
      }],
      "containedItemQuantity" : [{
        "value" : 6,
        "unit" : "Pessary",
        "system" : "https://spor.ema.europa.eu/v1/lists/200000000014",
        "code" : "200000002137"
      },
      {
        "value" : 1,
        "unit" : "Tube",
        "system" : "https://spor.ema.europa.eu/v1/lists/200000000014",
        "code" : "200000002156"
      }],
      "description" : "Alu/PE-fooliumist valmistatud ribapakend, mis on asetatud väliskarpi. Kreem on alumiiniumtuubis ja omakorda pappkarbis. Kombineeritud pakend sisaldab: 6 vaginaalsuposiiti ja 20 g kreemi",
      "marketingStatus" : [{
        "country" : {
          "coding" : [{
            "system" : "https://spor.ema.europa.eu/v1/lists/100000000002",
            "code" : "100000000388",
            "display" : "Republic of Estonia"
          }]
        },
        "status" : {
          "coding" : [{
            "system" : "https://spor.ema.europa.eu/v1/lists/100000072052",
            "code" : "100000072083",
            "display" : "Marketed"
          }]
        }
      }],
      "packaging" : {
        "type" : {
          "coding" : [{
            "system" : "https://spor.ema.europa.eu/v1/lists/100000073346",
            "code" : "100000073498",
            "display" : "Box"
          }]
        },
        "quantity" : 1,
        "material" : [{
          "coding" : [{
            "system" : "https://spor.ema.europa.eu/v1/lists/200000003199",
            "code" : "200000003529",
            "display" : "Cardboard"
          }]
        }],
        "packaging" : [{
          "type" : {
            "coding" : [{
              "system" : "https://spor.ema.europa.eu/v1/lists/100000073346",
              "code" : "100000073559",
              "display" : "Strip"
            }]
          },
          "quantity" : 1,
          "material" : [{
            "coding" : [{
              "system" : "https://spor.ema.europa.eu/v1/lists/200000003199",
              "code" : "200000003200",
              "display" : "Aluminium"
            }]
          },
          {
            "coding" : [{
              "system" : "https://spor.ema.europa.eu/v1/lists/200000003199",
              "code" : "200000003214",
              "display" : "PolyEthylene"
            }]
          }],
          "containedItem" : [{
            "item" : {
              "reference" : {
                "reference" : "ManufacturedItemDefinition/CanifugCremolum-100mg-Pessary-EE-MID"
              }
            },
            "amount" : {
              "value" : 6
            }
          }]
        },
        {
          "type" : {
            "coding" : [{
              "system" : "https://spor.ema.europa.eu/v1/lists/100000073346",
              "code" : "100000073561",
              "display" : "Tube"
            }]
          },
          "quantity" : 1,
          "material" : [{
            "coding" : [{
              "system" : "https://spor.ema.europa.eu/v1/lists/200000003199",
              "code" : "200000003200",
              "display" : "Aluminium"
            }]
          }],
          "containedItem" : [{
            "item" : {
              "reference" : {
                "reference" : "ManufacturedItemDefinition/CanifugCremolum-10mg1g-Cream-EE-MID"
              }
            },
            "amount" : {
              "value" : 20,
              "unit" : "gram(s)",
              "system" : "https://spor.ema.europa.eu/v1/lists/100000110633",
              "code" : "100000110654"
            }
          }]
        }]
      }
    }
  }]
}