<?xml version="1.0" encoding="UTF-8"?>

<Bundle xmlns="http://hl7.org/fhir">
  <id value="006-Yaz-002mg3mg-tablet-SE-FullProduct"/>
  <type value="collection"/>
  <entry>
    <fullUrl value="https://hl7-eu.github.io/unicom-ig/branches/mpd-r4b/MedicinalProductDefinition-Yaz-0023mg-tablet-SE-AJ-MedicinalProductDefinition"/>
    <resource>
      <MedicinalProductDefinition>
        <id value="Yaz-0023mg-tablet-SE-AJ-MedicinalProductDefinition"/>
        <meta>
          <profile value="http://unicom-project.eu/fhir/StructureDefinition/PPLMedicinalProductDefinition"/>
        </meta>
        <text>
          <status value="generated"/><div xmlns="http://www.w3.org/1999/xhtml"><a name="MedicinalProductDefinition_Yaz-0023mg-tablet-SE-AJ-MedicinalProductDefinition"> </a><p class="res-header-id"><b>Generated Narrative: MedicinalProductDefinition Yaz-0023mg-tablet-SE-AJ-MedicinalProductDefinition</b></p><a name="Yaz-0023mg-tablet-SE-AJ-MedicinalProductDefinition"> </a><a name="hcYaz-0023mg-tablet-SE-AJ-MedicinalProductDefinition"> </a><a name="Yaz-0023mg-tablet-SE-AJ-MedicinalProductDefinition-en-US"> </a><p><b>identifier</b>: <code>http://ema.europa.eu/fhir/mpId</code>/SE-100004813-00026267</p><p><b>domain</b>: <span title="Codes:{https://spor.ema.europa.eu/v1/lists/100000000004 100000000012}">Human use</span></p><p><b>status</b>: <span title="Codes:{https://spor.ema.europa.eu/v1/lists/200000005003 200000005004}">Current</span></p><p><b>combinedPharmaceuticalDoseForm</b>: <span title="Codes:{https://spor.ema.europa.eu/v1/lists/200000000004 100000073665}">Film-coated tablet</span></p><p><b>indication</b>: </p><div><p>Antikonception Vid beslut att förskriva Yaz ska den enskilda kvinnans riskfaktorer beaktas, framför allt de för  venös tromboembolism (VTE), och risken för VTE med Yaz jämfört med andra kombinerade  hormonella preventivmedel (se avsnitt 4.3 och 4.4).</p>
</div><p><b>legalStatusOfSupply</b>: <span title="Codes:{https://spor.ema.europa.eu/v1/lists/100000072051 100000072084}">Medicinal product subject to medical prescription</span></p><p><b>classification</b>: <span title="Codes:{https://spor.ema.europa.eu/v1/lists/100000093533 100000095785}">drospirenone and ethinylestradiol</span></p><blockquote><p><b>name</b></p><p><b>productName</b>: Yaz 0,02 mg/3 mg Filmdragerad tablett</p><blockquote><p><b>part</b></p><p><b>part</b>: Yaz</p><p><b>type</b>: <span title="Codes:{https://spor.ema.europa.eu/v1/lists/220000000000 220000000002}">Invented name part</span></p></blockquote><blockquote><p><b>part</b></p><p><b>part</b>: 0,02 mg/3 mg</p><p><b>type</b>: <span title="Codes:{https://spor.ema.europa.eu/v1/lists/220000000000 220000000004}">Strength part</span></p></blockquote><blockquote><p><b>part</b></p><p><b>part</b>: Filmdragerad tablett</p><p><b>type</b>: <span title="Codes:{https://spor.ema.europa.eu/v1/lists/220000000000 220000000005}">Pharmaceutical dose form part</span></p></blockquote><h3>Usages</h3><table class="grid"><tr><td style="display: none">-</td><td><b>Country</b></td><td><b>Language</b></td></tr><tr><td style="display: none">*</td><td><span title="Codes:{https://spor.ema.europa.eu/v1/lists/100000000002 100000000535}">Kingdom of Sweden</span></td><td><span title="Codes:{urn:ietf:bcp:47 sv}">Swedish</span></td></tr></table></blockquote></div>
        </text>
        <identifier>
          <system value="http://ema.europa.eu/fhir/mpId"/>
          <value value="SE-100004813-00026267"/>
        </identifier>
        <domain>
          <coding>
            <system value="https://spor.ema.europa.eu/v1/lists/100000000004"/>
            <code value="100000000012"/>
            <display value="Human use"/>
          </coding>
        </domain>
        <status>
          <coding>
            <system value="https://spor.ema.europa.eu/v1/lists/200000005003"/>
            <code value="200000005004"/>
            <display value="Current"/>
          </coding>
        </status>
        <combinedPharmaceuticalDoseForm>
          <coding>
            <system value="https://spor.ema.europa.eu/v1/lists/200000000004"/>
            <code value="100000073665"/>
            <display value="Film-coated tablet"/>
          </coding>
        </combinedPharmaceuticalDoseForm>
        <indication value="Antikonception Vid beslut att förskriva Yaz ska den enskilda kvinnans riskfaktorer beaktas, framför allt de för  venös tromboembolism (VTE), och risken för VTE med Yaz jämfört med andra kombinerade  hormonella preventivmedel (se avsnitt 4.3 och 4.4)."/>
        <legalStatusOfSupply>
          <coding>
            <system value="https://spor.ema.europa.eu/v1/lists/100000072051"/>
            <code value="100000072084"/>
            <display value="Medicinal product subject to medical prescription"/>
          </coding>
        </legalStatusOfSupply>
        <classification>
          <coding>
            <system value="https://spor.ema.europa.eu/v1/lists/100000093533"/>
            <code value="100000095785"/>
            <display value="drospirenone and ethinylestradiol"/>
          </coding>
        </classification>
        <name>
          <productName value="Yaz 0,02 mg/3 mg Filmdragerad tablett"/>
          <part>
            <part value="Yaz"/>
            <type>
              <coding>
                <system value="https://spor.ema.europa.eu/v1/lists/220000000000"/>
                <code value="220000000002"/>
                <display value="Invented name part"/>
              </coding>
            </type>
          </part>
          <part>
            <part value="0,02 mg/3 mg"/>
            <type>
              <coding>
                <system value="https://spor.ema.europa.eu/v1/lists/220000000000"/>
                <code value="220000000004"/>
                <display value="Strength part"/>
              </coding>
            </type>
          </part>
          <part>
            <part value="Filmdragerad tablett"/>
            <type>
              <coding>
                <system value="https://spor.ema.europa.eu/v1/lists/220000000000"/>
                <code value="220000000005"/>
                <display value="Pharmaceutical dose form part"/>
              </coding>
            </type>
          </part>
          <usage>
            <country>
              <coding>
                <system value="https://spor.ema.europa.eu/v1/lists/100000000002"/>
                <code value="100000000535"/>
                <display value="Kingdom of Sweden"/>
              </coding>
            </country>
            <language>
              <coding>
                <system value="urn:ietf:bcp:47"/>
                <code value="sv"/>
                <display value="Swedish"/>
              </coding>
            </language>
          </usage>
        </name>
      </MedicinalProductDefinition>
    </resource>
  </entry>
  <entry>
    <fullUrl value="https://hl7-eu.github.io/unicom-ig/branches/mpd-r4b/Organization-LOC-100016468-BayerAB"/>
    <resource>
      <Organization>
        <id value="LOC-100016468-BayerAB"/>
        <meta>
          <profile value="http://unicom-project.eu/fhir/StructureDefinition/PPLOrganization"/>
        </meta>
        <text>
          <status value="generated"/><div xmlns="http://www.w3.org/1999/xhtml"><a name="Organization_LOC-100016468-BayerAB"> </a><p class="res-header-id"><b>Generated Narrative: Organization LOC-100016468-BayerAB</b></p><a name="LOC-100016468-BayerAB"> </a><a name="hcLOC-100016468-BayerAB"> </a><a name="LOC-100016468-BayerAB-en-US"> </a><p><b>identifier</b>: <code>https://spor.ema.europa.eu/v1/locations</code>/LOC-100016468</p><p><b>name</b>: Bayer AB</p></div>
        </text>
        <identifier>
          <system value="https://spor.ema.europa.eu/v1/locations"/>
          <value value="LOC-100016468"/>
        </identifier>
        <name value="Bayer AB"/>
      </Organization>
    </resource>
  </entry>
  <entry>
    <fullUrl value="https://hl7-eu.github.io/unicom-ig/branches/mpd-r4b/RegulatedAuthorization-Yaz-0023mg-tablet-SE-AJ-RegulatedAuthorization"/>
    <resource>
      <RegulatedAuthorization>
        <id value="Yaz-0023mg-tablet-SE-AJ-RegulatedAuthorization"/>
        <meta>
          <profile value="http://unicom-project.eu/fhir/StructureDefinition/PPLRegulatedAuthorization"/>
        </meta>
        <text>
          <status value="generated"/><div xmlns="http://www.w3.org/1999/xhtml"><a name="RegulatedAuthorization_Yaz-0023mg-tablet-SE-AJ-RegulatedAuthorization"> </a><p class="res-header-id"><b>Generated Narrative: RegulatedAuthorization Yaz-0023mg-tablet-SE-AJ-RegulatedAuthorization</b></p><a name="Yaz-0023mg-tablet-SE-AJ-RegulatedAuthorization"> </a><a name="hcYaz-0023mg-tablet-SE-AJ-RegulatedAuthorization"> </a><a name="Yaz-0023mg-tablet-SE-AJ-RegulatedAuthorization-en-US"> </a><p><b>identifier</b>: 26267</p><p><b>subject</b>: <a href="Bundle-006-Yaz-002mg3mg-tablet-SE-FullProduct.html#MedicinalProductDefinition_Yaz-0023mg-tablet-SE-AJ-MedicinalProductDefinition">Bundle: type = collection</a></p><p><b>type</b>: <span title="Codes:{https://spor.ema.europa.eu/v1/lists/220000000060 220000000061}">Marketing Authorisation</span></p><p><b>region</b>: <span title="Codes:{https://spor.ema.europa.eu/v1/lists/100000000002 100000000535}">Kingdom of Sweden</span></p><p><b>status</b>: <span title="Codes:{https://spor.ema.europa.eu/v1/lists/100000072049 100000072099}">Valid</span></p><p><b>statusDate</b>: 2008-07-03</p><p><b>holder</b>: <a href="Bundle-006-Yaz-002mg3mg-tablet-SE-FullProduct.html#Organization_LOC-100016468-BayerAB">Bundle: type = collection</a></p></div>
        </text>
        <identifier>
          <value value="26267"/>
        </identifier>
        <subject>
          <reference value="MedicinalProductDefinition/Yaz-0023mg-tablet-SE-AJ-MedicinalProductDefinition"/>
        </subject>
        <type>
          <coding>
            <system value="https://spor.ema.europa.eu/v1/lists/220000000060"/>
            <code value="220000000061"/>
            <display value="Marketing Authorisation"/>
          </coding>
        </type>
        <region>
          <coding>
            <system value="https://spor.ema.europa.eu/v1/lists/100000000002"/>
            <code value="100000000535"/>
            <display value="Kingdom of Sweden"/>
          </coding>
        </region>
        <status>
          <coding>
            <system value="https://spor.ema.europa.eu/v1/lists/100000072049"/>
            <code value="100000072099"/>
            <display value="Valid"/>
          </coding>
        </status>
        <statusDate value="2008-07-03"/>
        <holder>
          <reference value="Organization/LOC-100016468-BayerAB"/>
        </holder>
      </RegulatedAuthorization>
    </resource>
  </entry>
  <entry>
    <fullUrl value="https://hl7-eu.github.io/unicom-ig/branches/mpd-r4b/AdministrableProductDefinition-Yaz-0023mg-tablet-SE-AJ-AdministrableProductDefinition01"/>
    <resource>
      <AdministrableProductDefinition>
        <id value="Yaz-0023mg-tablet-SE-AJ-AdministrableProductDefinition01"/>
        <meta>
          <profile value="http://unicom-project.eu/fhir/StructureDefinition/PPLAdministrableProductDefinition"/>
        </meta>
        <text>
          <status value="generated"/><div xmlns="http://www.w3.org/1999/xhtml"><a name="AdministrableProductDefinition_Yaz-0023mg-tablet-SE-AJ-AdministrableProductDefinition01"> </a><p class="res-header-id"><b>Generated Narrative: AdministrableProductDefinition Yaz-0023mg-tablet-SE-AJ-AdministrableProductDefinition01</b></p><a name="Yaz-0023mg-tablet-SE-AJ-AdministrableProductDefinition01"> </a><a name="hcYaz-0023mg-tablet-SE-AJ-AdministrableProductDefinition01"> </a><a name="Yaz-0023mg-tablet-SE-AJ-AdministrableProductDefinition01-en-US"> </a><p><b>status</b>: Active</p><p><b>formOf</b>: <a href="Bundle-006-Yaz-002mg3mg-tablet-SE-FullProduct.html#MedicinalProductDefinition_Yaz-0023mg-tablet-SE-AJ-MedicinalProductDefinition">Bundle: type = collection</a></p><p><b>administrableDoseForm</b>: <span title="Codes:{https://spor.ema.europa.eu/v1/lists/200000000004 100000073665}">Film-coated tablet</span></p><p><b>producedFrom</b>: <a href="Bundle-006-Yaz-002mg3mg-tablet-SE-FullProduct.html#ManufacturedItemDefinition_Yaz-0023mg-tablet-SE-AJ-ManufacturedItemDefinition01">Bundle: type = collection</a></p><h3>RouteOfAdministrations</h3><table class="grid"><tr><td style="display: none">-</td><td><b>Code</b></td></tr><tr><td style="display: none">*</td><td><span title="Codes:{https://spor.ema.europa.eu/v1/lists/100000073345 100000073619}">Oral use</span></td></tr></table></div>
        </text>
        <status value="active"/>
        <formOf>
          <reference value="MedicinalProductDefinition/Yaz-0023mg-tablet-SE-AJ-MedicinalProductDefinition"/>
        </formOf>
        <administrableDoseForm>
          <coding>
            <system value="https://spor.ema.europa.eu/v1/lists/200000000004"/>
            <code value="100000073665"/>
            <display value="Film-coated tablet"/>
          </coding>
        </administrableDoseForm>
        <producedFrom>
          <reference value="ManufacturedItemDefinition/Yaz-0023mg-tablet-SE-AJ-ManufacturedItemDefinition01"/>
        </producedFrom>
        <routeOfAdministration>
          <code>
            <coding>
              <system value="https://spor.ema.europa.eu/v1/lists/100000073345"/>
              <code value="100000073619"/>
              <display value="Oral use"/>
            </coding>
          </code>
        </routeOfAdministration>
      </AdministrableProductDefinition>
    </resource>
  </entry>
  <entry>
    <fullUrl value="https://hl7-eu.github.io/unicom-ig/branches/mpd-r4b/AdministrableProductDefinition-Yaz-0023mg-tablet-SE-AJ-AdministrableProductDefinition02"/>
    <resource>
      <AdministrableProductDefinition>
        <id value="Yaz-0023mg-tablet-SE-AJ-AdministrableProductDefinition02"/>
        <meta>
          <profile value="http://unicom-project.eu/fhir/StructureDefinition/PPLAdministrableProductDefinition"/>
        </meta>
        <text>
          <status value="generated"/><div xmlns="http://www.w3.org/1999/xhtml"><a name="AdministrableProductDefinition_Yaz-0023mg-tablet-SE-AJ-AdministrableProductDefinition02"> </a><p class="res-header-id"><b>Generated Narrative: AdministrableProductDefinition Yaz-0023mg-tablet-SE-AJ-AdministrableProductDefinition02</b></p><a name="Yaz-0023mg-tablet-SE-AJ-AdministrableProductDefinition02"> </a><a name="hcYaz-0023mg-tablet-SE-AJ-AdministrableProductDefinition02"> </a><a name="Yaz-0023mg-tablet-SE-AJ-AdministrableProductDefinition02-en-US"> </a><p><b>status</b>: Active</p><p><b>formOf</b>: <a href="Bundle-006-Yaz-002mg3mg-tablet-SE-FullProduct.html#MedicinalProductDefinition_Yaz-0023mg-tablet-SE-AJ-MedicinalProductDefinition">Bundle: type = collection</a></p><p><b>administrableDoseForm</b>: <span title="Codes:{https://spor.ema.europa.eu/v1/lists/200000000004 100000073665}">Film-coated tablet</span></p><p><b>producedFrom</b>: <a href="Bundle-006-Yaz-002mg3mg-tablet-SE-FullProduct.html#ManufacturedItemDefinition_Yaz-0023mg-tablet-SE-AJ-ManufacturedItemDefinition02">Bundle: type = collection</a></p><h3>RouteOfAdministrations</h3><table class="grid"><tr><td style="display: none">-</td><td><b>Code</b></td></tr><tr><td style="display: none">*</td><td><span title="Codes:{https://spor.ema.europa.eu/v1/lists/100000073345 100000073619}">Oral use</span></td></tr></table></div>
        </text>
        <status value="active"/>
        <formOf>
          <reference value="MedicinalProductDefinition/Yaz-0023mg-tablet-SE-AJ-MedicinalProductDefinition"/>
        </formOf>
        <administrableDoseForm>
          <coding>
            <system value="https://spor.ema.europa.eu/v1/lists/200000000004"/>
            <code value="100000073665"/>
            <display value="Film-coated tablet"/>
          </coding>
        </administrableDoseForm>
        <producedFrom>
          <reference value="ManufacturedItemDefinition/Yaz-0023mg-tablet-SE-AJ-ManufacturedItemDefinition02"/>
        </producedFrom>
        <routeOfAdministration>
          <code>
            <coding>
              <system value="https://spor.ema.europa.eu/v1/lists/100000073345"/>
              <code value="100000073619"/>
              <display value="Oral use"/>
            </coding>
          </code>
        </routeOfAdministration>
      </AdministrableProductDefinition>
    </resource>
  </entry>
  <entry>
    <fullUrl value="https://hl7-eu.github.io/unicom-ig/branches/mpd-r4b/PackagedProductDefinition-Yaz-0023mg-tablet-SE-AJ-PackagedProductDefinition"/>
    <resource>
      <PackagedProductDefinition>
        <id value="Yaz-0023mg-tablet-SE-AJ-PackagedProductDefinition"/>
        <meta>
          <profile value="http://unicom-project.eu/fhir/StructureDefinition/PPLPackagedProductDefinition"/>
        </meta>
        <text>
          <status value="generated"/><div xmlns="http://www.w3.org/1999/xhtml"><a name="PackagedProductDefinition_Yaz-0023mg-tablet-SE-AJ-PackagedProductDefinition"> </a><p class="res-header-id"><b>Generated Narrative: PackagedProductDefinition Yaz-0023mg-tablet-SE-AJ-PackagedProductDefinition</b></p><a name="Yaz-0023mg-tablet-SE-AJ-PackagedProductDefinition"> </a><a name="hcYaz-0023mg-tablet-SE-AJ-PackagedProductDefinition"> </a><a name="Yaz-0023mg-tablet-SE-AJ-PackagedProductDefinition-en-US"> </a><p><b>identifier</b>: <code>http://ema.europa.eu/example/pcid</code>/?ngen-9?</p><p><b>packageFor</b>: <a href="Bundle-006-Yaz-002mg3mg-tablet-SE-FullProduct.html#MedicinalProductDefinition_Yaz-0023mg-tablet-SE-AJ-MedicinalProductDefinition">Bundle: type = collection</a></p><p><b>containedItemQuantity</b>: 84 tablet<span style="background: LightGoldenRodYellow"> (Details: Unit of Presentation EMA  code200000002152 = 'Tablet')</span></p><p><b>description</b>: </p><div><p>Blister, 3 x 28 tabletter</p>
</div><h3>MarketingStatuses</h3><table class="grid"><tr><td style="display: none">-</td><td><b>Country</b></td><td><b>Status</b></td></tr><tr><td style="display: none">*</td><td><span title="Codes:{https://spor.ema.europa.eu/v1/lists/100000000002 100000000535}">Kingdom of Sweden</span></td><td><span title="Codes:{https://spor.ema.europa.eu/v1/lists/100000072052 100000072083}">Marketed</span></td></tr></table><blockquote><p><b>packaging</b></p><p><b>type</b>: <span title="Codes:{https://spor.ema.europa.eu/v1/lists/100000073346 100000073498}">Box</span></p><p><b>quantity</b>: 1</p><p><b>material</b>: <span title="Codes:{https://spor.ema.europa.eu/v1/lists/200000003199 200000003208}">Plastic</span></p><blockquote><p><b>packaging</b></p></blockquote></blockquote></div>
        </text>
        <identifier>
          <system value="http://ema.europa.eu/example/pcid"/>
        </identifier>
        <packageFor>
          <reference value="MedicinalProductDefinition/Yaz-0023mg-tablet-SE-AJ-MedicinalProductDefinition"/>
        </packageFor>
        <containedItemQuantity>
          <value value="84"/>
          <unit value="tablet"/>
          <system value="https://spor.ema.europa.eu/v1/lists/200000000014"/>
          <code value="200000002152"/>
        </containedItemQuantity>
        <description value="Blister, 3 x 28 tabletter"/>
        <marketingStatus>
          <country>
            <coding>
              <system value="https://spor.ema.europa.eu/v1/lists/100000000002"/>
              <code value="100000000535"/>
              <display value="Kingdom of Sweden"/>
            </coding>
          </country>
          <status>
            <coding>
              <system value="https://spor.ema.europa.eu/v1/lists/100000072052"/>
              <code value="100000072083"/>
              <display value="Marketed"/>
            </coding>
          </status>
        </marketingStatus>
        <packaging>
          <type>
            <coding>
              <system value="https://spor.ema.europa.eu/v1/lists/100000073346"/>
              <code value="100000073498"/>
              <display value="Box"/>
            </coding>
          </type>
          <quantity value="1"/>
          <material>
            <coding>
              <system value="https://spor.ema.europa.eu/v1/lists/200000003199"/>
              <code value="200000003208"/>
              <display value="Plastic"/>
            </coding>
          </material>
          <packaging>
            <type>
              <coding>
                <system value="https://spor.ema.europa.eu/v1/lists/100000073346"/>
                <code value="100000073498"/>
                <display value="Box"/>
              </coding>
            </type>
            <quantity value="3"/>
            <material>
              <coding>
                <system value="https://spor.ema.europa.eu/v1/lists/200000003199"/>
                <code value="200000003529"/>
                <display value="Cardboard"/>
              </coding>
            </material>
            <packaging>
              <type>
                <coding>
                  <system value="https://spor.ema.europa.eu/v1/lists/100000073346"/>
                  <code value="100000073496"/>
                  <display value="Blister"/>
                </coding>
              </type>
              <quantity value="1"/>
              <material>
                <coding>
                  <system value="https://spor.ema.europa.eu/v1/lists/200000003199"/>
                  <code value="200000003200"/>
                  <display value="Aluminium"/>
                </coding>
              </material>
              <material>
                <coding>
                  <system value="https://spor.ema.europa.eu/v1/lists/200000003199"/>
                  <code value="200000003222"/>
                  <display value="PolyVinyl Chloride"/>
                </coding>
              </material>
              <containedItem>
                <item>
                  <reference>
                    <reference value="ManufacturedItemDefinition/Yaz-0023mg-tablet-SE-AJ-ManufacturedItemDefinition01"/>
                  </reference>
                </item>
                <amount>
                  <value value="24"/>
                  <unit value="tablet"/>
                  <system value="https://spor.ema.europa.eu/v1/lists/200000000014"/>
                  <code value="200000002152"/>
                </amount>
              </containedItem>
              <containedItem>
                <item>
                  <reference>
                    <reference value="ManufacturedItemDefinition/Yaz-0023mg-tablet-SE-AJ-ManufacturedItemDefinition02"/>
                  </reference>
                </item>
                <amount>
                  <value value="4"/>
                  <unit value="tablet"/>
                  <system value="https://spor.ema.europa.eu/v1/lists/200000000014"/>
                  <code value="200000002152"/>
                </amount>
              </containedItem>
            </packaging>
          </packaging>
        </packaging>
      </PackagedProductDefinition>
    </resource>
  </entry>
  <entry>
    <fullUrl value="https://hl7-eu.github.io/unicom-ig/branches/mpd-r4b/ManufacturedItemDefinition-Yaz-0023mg-tablet-SE-AJ-ManufacturedItemDefinition01"/>
    <resource>
      <ManufacturedItemDefinition>
        <id value="Yaz-0023mg-tablet-SE-AJ-ManufacturedItemDefinition01"/>
        <meta>
          <profile value="http://unicom-project.eu/fhir/StructureDefinition/PPLManufacturedItemDefinition"/>
        </meta>
        <text>
          <status value="generated"/><div xmlns="http://www.w3.org/1999/xhtml"><a name="ManufacturedItemDefinition_Yaz-0023mg-tablet-SE-AJ-ManufacturedItemDefinition01"> </a><p class="res-header-id"><b>Generated Narrative: ManufacturedItemDefinition Yaz-0023mg-tablet-SE-AJ-ManufacturedItemDefinition01</b></p><a name="Yaz-0023mg-tablet-SE-AJ-ManufacturedItemDefinition01"> </a><a name="hcYaz-0023mg-tablet-SE-AJ-ManufacturedItemDefinition01"> </a><a name="Yaz-0023mg-tablet-SE-AJ-ManufacturedItemDefinition01-en-US"> </a><p><b>status</b>: Active</p><p><b>manufacturedDoseForm</b>: <span title="Codes:{https://spor.ema.europa.eu/v1/lists/200000000004 100000073665}">Film-coated tablet</span></p><p><b>unitOfPresentation</b>: <span title="Codes:{https://spor.ema.europa.eu/v1/lists/200000000014 200000002152}">tablet</span></p></div>
        </text>
        <status value="active"/>
        <manufacturedDoseForm>
          <coding>
            <system value="https://spor.ema.europa.eu/v1/lists/200000000004"/>
            <code value="100000073665"/>
            <display value="Film-coated tablet"/>
          </coding>
        </manufacturedDoseForm>
        <unitOfPresentation>
          <coding>
            <system value="https://spor.ema.europa.eu/v1/lists/200000000014"/>
            <code value="200000002152"/>
            <display value="tablet"/>
          </coding>
        </unitOfPresentation>
      </ManufacturedItemDefinition>
    </resource>
  </entry>
  <entry>
    <fullUrl value="https://hl7-eu.github.io/unicom-ig/branches/mpd-r4b/ManufacturedItemDefinition-Yaz-0023mg-tablet-SE-AJ-ManufacturedItemDefinition02"/>
    <resource>
      <ManufacturedItemDefinition>
        <id value="Yaz-0023mg-tablet-SE-AJ-ManufacturedItemDefinition02"/>
        <meta>
          <profile value="http://unicom-project.eu/fhir/StructureDefinition/PPLManufacturedItemDefinition"/>
        </meta>
        <text>
          <status value="generated"/><div xmlns="http://www.w3.org/1999/xhtml"><a name="ManufacturedItemDefinition_Yaz-0023mg-tablet-SE-AJ-ManufacturedItemDefinition02"> </a><p class="res-header-id"><b>Generated Narrative: ManufacturedItemDefinition Yaz-0023mg-tablet-SE-AJ-ManufacturedItemDefinition02</b></p><a name="Yaz-0023mg-tablet-SE-AJ-ManufacturedItemDefinition02"> </a><a name="hcYaz-0023mg-tablet-SE-AJ-ManufacturedItemDefinition02"> </a><a name="Yaz-0023mg-tablet-SE-AJ-ManufacturedItemDefinition02-en-US"> </a><p><b>status</b>: Active</p><p><b>manufacturedDoseForm</b>: <span title="Codes:{https://spor.ema.europa.eu/v1/lists/200000000004 100000073665}">Film-coated tablet</span></p><p><b>unitOfPresentation</b>: <span title="Codes:{https://spor.ema.europa.eu/v1/lists/200000000014 200000002152}">tablet</span></p></div>
        </text>
        <status value="active"/>
        <manufacturedDoseForm>
          <coding>
            <system value="https://spor.ema.europa.eu/v1/lists/200000000004"/>
            <code value="100000073665"/>
            <display value="Film-coated tablet"/>
          </coding>
        </manufacturedDoseForm>
        <unitOfPresentation>
          <coding>
            <system value="https://spor.ema.europa.eu/v1/lists/200000000014"/>
            <code value="200000002152"/>
            <display value="tablet"/>
          </coding>
        </unitOfPresentation>
      </ManufacturedItemDefinition>
    </resource>
  </entry>
  <entry>
    <fullUrl value="https://hl7-eu.github.io/unicom-ig/branches/mpd-r4b/Ingredient-Yaz-0023mg-tablet-SE-AJ-Ingredient01"/>
    <resource>
      <Ingredient>
        <id value="Yaz-0023mg-tablet-SE-AJ-Ingredient01"/>
        <meta>
          <profile value="http://unicom-project.eu/fhir/StructureDefinition/PPLIngredient"/>
        </meta>
        <text>
          <status value="generated"/><div xmlns="http://www.w3.org/1999/xhtml"><a name="Ingredient_Yaz-0023mg-tablet-SE-AJ-Ingredient01"> </a><p class="res-header-id"><b>Generated Narrative: Ingredient Yaz-0023mg-tablet-SE-AJ-Ingredient01</b></p><a name="Yaz-0023mg-tablet-SE-AJ-Ingredient01"> </a><a name="hcYaz-0023mg-tablet-SE-AJ-Ingredient01"> </a><a name="Yaz-0023mg-tablet-SE-AJ-Ingredient01-en-US"> </a><p><b>status</b>: Active</p><p><b>for</b>: </p><ul><li><a href="Bundle-006-Yaz-002mg3mg-tablet-SE-FullProduct.html#MedicinalProductDefinition_Yaz-0023mg-tablet-SE-AJ-MedicinalProductDefinition">Bundle: type = collection</a></li><li><a href="Bundle-006-Yaz-002mg3mg-tablet-SE-FullProduct.html#ManufacturedItemDefinition_Yaz-0023mg-tablet-SE-AJ-ManufacturedItemDefinition01">Bundle: type = collection</a></li><li><a href="Bundle-006-Yaz-002mg3mg-tablet-SE-FullProduct.html#AdministrableProductDefinition_Yaz-0023mg-tablet-SE-AJ-AdministrableProductDefinition01">Bundle: type = collection</a></li></ul><p><b>role</b>: <span title="Codes:{https://spor.ema.europa.eu/v1/lists/100000072050 100000072072}">Active</span></p><blockquote><p><b>substance</b></p><h3>Codes</h3><table class="grid"><tr><td style="display: none">-</td><td><b>Concept</b></td></tr><tr><td style="display: none">*</td><td><span title="Codes:{https://spor.ema.europa.eu/v2/SubstanceDefinition 100000091531}">Ethinylestradiol betadex clathrate</span></td></tr></table><blockquote><p><b>strength</b></p><p><b>presentation</b>: 173.17 microgram(s)<span style="background: LightGoldenRodYellow"> (Details: Unit of Measurement EMA  code100000110656 = 'microgram(s)')</span>/1 tablet<span style="background: LightGoldenRodYellow"> (Details: Unit of Presentation EMA  code200000002152 = 'Tablet')</span></p><blockquote><p><b>referenceStrength</b></p><h3>Substances</h3><table class="grid"><tr><td style="display: none">-</td><td><b>Concept</b></td></tr><tr><td style="display: none">*</td><td><span title="Codes:{https://spor.ema.europa.eu/v2/SubstanceDefinition 100000091721}">Ethinylestradiol</span></td></tr></table><p><b>strength</b>: 20 microgram(s)<span style="background: LightGoldenRodYellow"> (Details: Unit of Measurement EMA  code100000110656 = 'microgram(s)')</span>/1 tablet<span style="background: LightGoldenRodYellow"> (Details: Unit of Presentation EMA  code200000002152 = 'Tablet')</span></p></blockquote></blockquote></blockquote></div>
        </text>
        <status value="active"/>
        <for>
          <reference value="MedicinalProductDefinition/Yaz-0023mg-tablet-SE-AJ-MedicinalProductDefinition"/>
        </for>
        <for>
          <reference value="ManufacturedItemDefinition/Yaz-0023mg-tablet-SE-AJ-ManufacturedItemDefinition01"/>
        </for>
        <for>
          <reference value="AdministrableProductDefinition/Yaz-0023mg-tablet-SE-AJ-AdministrableProductDefinition01"/>
        </for>
        <role>
          <coding>
            <system value="https://spor.ema.europa.eu/v1/lists/100000072050"/>
            <code value="100000072072"/>
            <display value="Active"/>
          </coding>
        </role>
        <substance>
          <code>
            <concept>
              <coding>
                <system value="https://spor.ema.europa.eu/v2/SubstanceDefinition"/>
                <code value="100000091531"/>
                <display value="Ethinylestradiol betadex clathrate"/>
              </coding>
            </concept>
          </code>
          <strength>
            <presentationRatio>
              <numerator>
                <value value="173.17"/>
                <unit value="microgram(s)"/>
                <system value="https://spor.ema.europa.eu/v1/lists/100000110633"/>
                <code value="100000110656"/>
              </numerator>
              <denominator>
                <value value="1"/>
                <unit value="tablet"/>
                <system value="https://spor.ema.europa.eu/v1/lists/200000000014"/>
                <code value="200000002152"/>
              </denominator>
            </presentationRatio>
            <referenceStrength>
              <substance>
                <concept>
                  <coding>
                    <system value="https://spor.ema.europa.eu/v2/SubstanceDefinition"/>
                    <code value="100000091721"/>
                    <display value="Ethinylestradiol"/>
                  </coding>
                </concept>
              </substance>
              <strengthRatio>
                <numerator>
                  <value value="20"/>
                  <unit value="microgram(s)"/>
                  <system value="https://spor.ema.europa.eu/v1/lists/100000110633"/>
                  <code value="100000110656"/>
                </numerator>
                <denominator>
                  <value value="1"/>
                  <unit value="tablet"/>
                  <system value="https://spor.ema.europa.eu/v1/lists/200000000014"/>
                  <code value="200000002152"/>
                </denominator>
              </strengthRatio>
            </referenceStrength>
          </strength>
        </substance>
      </Ingredient>
    </resource>
  </entry>
  <entry>
    <fullUrl value="https://hl7-eu.github.io/unicom-ig/branches/mpd-r4b/Ingredient-Yaz-0023mg-tablet-SE-AJ-Ingredient02"/>
    <resource>
      <Ingredient>
        <id value="Yaz-0023mg-tablet-SE-AJ-Ingredient02"/>
        <meta>
          <profile value="http://unicom-project.eu/fhir/StructureDefinition/PPLIngredient"/>
        </meta>
        <text>
          <status value="generated"/><div xmlns="http://www.w3.org/1999/xhtml"><a name="Ingredient_Yaz-0023mg-tablet-SE-AJ-Ingredient02"> </a><p class="res-header-id"><b>Generated Narrative: Ingredient Yaz-0023mg-tablet-SE-AJ-Ingredient02</b></p><a name="Yaz-0023mg-tablet-SE-AJ-Ingredient02"> </a><a name="hcYaz-0023mg-tablet-SE-AJ-Ingredient02"> </a><a name="Yaz-0023mg-tablet-SE-AJ-Ingredient02-en-US"> </a><p><b>status</b>: Active</p><p><b>for</b>: </p><ul><li><a href="Bundle-006-Yaz-002mg3mg-tablet-SE-FullProduct.html#MedicinalProductDefinition_Yaz-0023mg-tablet-SE-AJ-MedicinalProductDefinition">Bundle: type = collection</a></li><li><a href="Bundle-006-Yaz-002mg3mg-tablet-SE-FullProduct.html#ManufacturedItemDefinition_Yaz-0023mg-tablet-SE-AJ-ManufacturedItemDefinition02">Bundle: type = collection</a></li><li><a href="Bundle-006-Yaz-002mg3mg-tablet-SE-FullProduct.html#AdministrableProductDefinition_Yaz-0023mg-tablet-SE-AJ-AdministrableProductDefinition02">Bundle: type = collection</a></li></ul><p><b>role</b>: <span title="Codes:{https://spor.ema.europa.eu/v1/lists/100000072050 100000072082}">Excipient</span></p><blockquote><p><b>substance</b></p><h3>Codes</h3><table class="grid"><tr><td style="display: none">-</td><td><b>Concept</b></td></tr><tr><td style="display: none">*</td><td><span title="Codes:{https://spor.ema.europa.eu/v2/SubstanceDefinition 100000093305}">Lactose monohydrate</span></td></tr></table><blockquote><p><b>strength</b></p><p><b>presentation</b>: 23.2 milligram(s)<span style="background: LightGoldenRodYellow"> (Details: Unit of Measurement EMA  code100000110655 = 'milligram(s)')</span>/1 tablet<span style="background: LightGoldenRodYellow"> (Details: Unit of Presentation EMA  code200000002152 = 'Tablet')</span></p><blockquote><p><b>referenceStrength</b></p><h3>Substances</h3><table class="grid"><tr><td style="display: none">-</td><td><b>Concept</b></td></tr><tr><td style="display: none">*</td><td><span title="Codes:{https://spor.ema.europa.eu/v2/SubstanceDefinition 100000090052}">lactose</span></td></tr></table><p><b>strength</b>: 22 milligram(s)<span style="background: LightGoldenRodYellow"> (Details: Unit of Measurement EMA  code100000110655 = 'milligram(s)')</span>/1 tablet<span style="background: LightGoldenRodYellow"> (Details: Unit of Presentation EMA  code200000002152 = 'Tablet')</span></p></blockquote></blockquote></blockquote></div>
        </text>
        <status value="active"/>
        <for>
          <reference value="MedicinalProductDefinition/Yaz-0023mg-tablet-SE-AJ-MedicinalProductDefinition"/>
        </for>
        <for>
          <reference value="ManufacturedItemDefinition/Yaz-0023mg-tablet-SE-AJ-ManufacturedItemDefinition02"/>
        </for>
        <for>
          <reference value="AdministrableProductDefinition/Yaz-0023mg-tablet-SE-AJ-AdministrableProductDefinition02"/>
        </for>
        <role>
          <coding>
            <system value="https://spor.ema.europa.eu/v1/lists/100000072050"/>
            <code value="100000072082"/>
            <display value="Excipient"/>
          </coding>
        </role>
        <substance>
          <code>
            <concept>
              <coding>
                <system value="https://spor.ema.europa.eu/v2/SubstanceDefinition"/>
                <code value="100000093305"/>
                <display value="Lactose monohydrate"/>
              </coding>
            </concept>
          </code>
          <strength>
            <presentationRatio>
              <numerator>
                <value value="23.2"/>
                <unit value="milligram(s)"/>
                <system value="https://spor.ema.europa.eu/v1/lists/100000110633"/>
                <code value="100000110655"/>
              </numerator>
              <denominator>
                <value value="1"/>
                <unit value="tablet"/>
                <system value="https://spor.ema.europa.eu/v1/lists/200000000014"/>
                <code value="200000002152"/>
              </denominator>
            </presentationRatio>
            <referenceStrength>
              <substance>
                <concept>
                  <coding>
                    <system value="https://spor.ema.europa.eu/v2/SubstanceDefinition"/>
                    <code value="100000090052"/>
                    <display value="lactose"/>
                  </coding>
                </concept>
              </substance>
              <strengthRatio>
                <numerator>
                  <value value="22"/>
                  <unit value="milligram(s)"/>
                  <system value="https://spor.ema.europa.eu/v1/lists/100000110633"/>
                  <code value="100000110655"/>
                </numerator>
                <denominator>
                  <value value="1"/>
                  <unit value="tablet"/>
                  <system value="https://spor.ema.europa.eu/v1/lists/200000000014"/>
                  <code value="200000002152"/>
                </denominator>
              </strengthRatio>
            </referenceStrength>
          </strength>
        </substance>
      </Ingredient>
    </resource>
  </entry>
  <entry>
    <fullUrl value="https://hl7-eu.github.io/unicom-ig/branches/mpd-r4b/Ingredient-Yaz-0023mg-tablet-SE-AJ-Ingredient03"/>
    <resource>
      <Ingredient>
        <id value="Yaz-0023mg-tablet-SE-AJ-Ingredient03"/>
        <meta>
          <profile value="http://unicom-project.eu/fhir/StructureDefinition/PPLIngredient"/>
        </meta>
        <text>
          <status value="generated"/><div xmlns="http://www.w3.org/1999/xhtml"><a name="Ingredient_Yaz-0023mg-tablet-SE-AJ-Ingredient03"> </a><p class="res-header-id"><b>Generated Narrative: Ingredient Yaz-0023mg-tablet-SE-AJ-Ingredient03</b></p><a name="Yaz-0023mg-tablet-SE-AJ-Ingredient03"> </a><a name="hcYaz-0023mg-tablet-SE-AJ-Ingredient03"> </a><a name="Yaz-0023mg-tablet-SE-AJ-Ingredient03-en-US"> </a><p><b>status</b>: Active</p><p><b>for</b>: </p><ul><li><a href="Bundle-006-Yaz-002mg3mg-tablet-SE-FullProduct.html#MedicinalProductDefinition_Yaz-0023mg-tablet-SE-AJ-MedicinalProductDefinition">Bundle: type = collection</a></li><li><a href="Bundle-006-Yaz-002mg3mg-tablet-SE-FullProduct.html#ManufacturedItemDefinition_Yaz-0023mg-tablet-SE-AJ-ManufacturedItemDefinition01">Bundle: type = collection</a></li><li><a href="Bundle-006-Yaz-002mg3mg-tablet-SE-FullProduct.html#AdministrableProductDefinition_Yaz-0023mg-tablet-SE-AJ-AdministrableProductDefinition01">Bundle: type = collection</a></li></ul><p><b>role</b>: <span title="Codes:{https://spor.ema.europa.eu/v1/lists/100000072050 100000072072}">Active</span></p><blockquote><p><b>substance</b></p><h3>Codes</h3><table class="grid"><tr><td style="display: none">-</td><td><b>Concept</b></td></tr><tr><td style="display: none">*</td><td><span title="Codes:{https://spor.ema.europa.eu/v2/SubstanceDefinition 100000092375}">drospirenone</span></td></tr></table><blockquote><p><b>strength</b></p><p><b>presentation</b>: 3 milligram(s)<span style="background: LightGoldenRodYellow"> (Details: Unit of Measurement EMA  code100000110655 = 'milligram(s)')</span>/1 tablet<span style="background: LightGoldenRodYellow"> (Details: Unit of Presentation EMA  code200000002152 = 'Tablet')</span></p><blockquote><p><b>referenceStrength</b></p><h3>Substances</h3><table class="grid"><tr><td style="display: none">-</td><td><b>Concept</b></td></tr><tr><td style="display: none">*</td><td><span title="Codes:{https://spor.ema.europa.eu/v2/SubstanceDefinition 100000092375}">drospirenone</span></td></tr></table><p><b>strength</b>: 3 milligram(s)<span style="background: LightGoldenRodYellow"> (Details: Unit of Measurement EMA  code100000110655 = 'milligram(s)')</span>/1 tablet<span style="background: LightGoldenRodYellow"> (Details: Unit of Presentation EMA  code200000002152 = 'Tablet')</span></p></blockquote></blockquote></blockquote></div>
        </text>
        <status value="active"/>
        <for>
          <reference value="MedicinalProductDefinition/Yaz-0023mg-tablet-SE-AJ-MedicinalProductDefinition"/>
        </for>
        <for>
          <reference value="ManufacturedItemDefinition/Yaz-0023mg-tablet-SE-AJ-ManufacturedItemDefinition01"/>
        </for>
        <for>
          <reference value="AdministrableProductDefinition/Yaz-0023mg-tablet-SE-AJ-AdministrableProductDefinition01"/>
        </for>
        <role>
          <coding>
            <system value="https://spor.ema.europa.eu/v1/lists/100000072050"/>
            <code value="100000072072"/>
            <display value="Active"/>
          </coding>
        </role>
        <substance>
          <code>
            <concept>
              <coding>
                <system value="https://spor.ema.europa.eu/v2/SubstanceDefinition"/>
                <code value="100000092375"/>
                <display value="drospirenone"/>
              </coding>
            </concept>
          </code>
          <strength>
            <presentationRatio>
              <numerator>
                <value value="3"/>
                <unit value="milligram(s)"/>
                <system value="https://spor.ema.europa.eu/v1/lists/100000110633"/>
                <code value="100000110655"/>
              </numerator>
              <denominator>
                <value value="1"/>
                <unit value="tablet"/>
                <system value="https://spor.ema.europa.eu/v1/lists/200000000014"/>
                <code value="200000002152"/>
              </denominator>
            </presentationRatio>
            <referenceStrength>
              <substance>
                <concept>
                  <coding>
                    <system value="https://spor.ema.europa.eu/v2/SubstanceDefinition"/>
                    <code value="100000092375"/>
                    <display value="drospirenone"/>
                  </coding>
                </concept>
              </substance>
              <strengthRatio>
                <numerator>
                  <value value="3"/>
                  <unit value="milligram(s)"/>
                  <system value="https://spor.ema.europa.eu/v1/lists/100000110633"/>
                  <code value="100000110655"/>
                </numerator>
                <denominator>
                  <value value="1"/>
                  <unit value="tablet"/>
                  <system value="https://spor.ema.europa.eu/v1/lists/200000000014"/>
                  <code value="200000002152"/>
                </denominator>
              </strengthRatio>
            </referenceStrength>
          </strength>
        </substance>
      </Ingredient>
    </resource>
  </entry>
</Bundle>